Program started
Initialize MPU6050
 * Sleep Mode:            Disabled
 * Clock Source:          PLL with X axis gyroscope reference
 * Accelerometer:         +/- 2 g
 * Accelerometer offsets: -3540 / -3691 / 1478
 * Gyroscope:         2000 dps
 * Gyroscope offsets: 155 / 15 / 15
button pressed
Time, ACC_X-raw, ACC_Y-raw, ACC_Z-raw, ACC_X-norm, ACC_Y-norm, ACC_Z-norm, GYRO_X-raw, GYRO_Y-raw,GYRO_Z-raw, GYRO_X-norm, GYRO_Y-norm, GYRO_Z-norm, Ceramic_Piezo, Film_Piezo, Weighted_Film_Piezo, Vibration_Senso
697,248.00,-532.00,16848.00,0.05,-0.38,10.07,64.00,16.00,30.00,-0.05,-0.05,0.02,223,225,203 ,
944,704.00,-156.00,17160.00,1.23,-0.18,2.69,67.00,-16.00,29.00,0.44,-0.48,-0.10,188,214,201 ,122
967,160.00,-524.00,16736.00,0.12,-0.32,9.93,61.00,22.00,30.00,-0.11,-0.11,0.02,191,201,244 ,43
1151,376.00,-308.00,16632.00,0.48,-0.19,7.64,71.00,15.00,31.00,0.08,-0.60,0.02,206,214,247 ,26
1850,108.00,-544.00,16828.00,0.05,-0.35,10.04,66.00,19.00,32.00,-0.05,-0.05,0.08,207,203,240 ,
2551,152.00,-600.00,16856.00,0.15,-0.40,10.10,66.00,20.00,32.00,0.08,0.07,0.08,202,210,234 ,
3250,120.00,-540.00,16888.00,0.11,-0.36,10.11,65.00,18.00,33.00,0.01,0.19,-0.04,202,213,235 ,
3950,164.00,-584.00,16956.00,0.16,-0.35,10.13,67.00,23.00,32.00,0.01,0.38,0.14,200,213,232 ,
4650,132.00,-576.00,16848.00,0.09,-0.28,10.14,65.00,20.00,32.00,-0.17,0.01,0.08,203,213,232 ,
5350,160.00,-652.00,16868.00,0.12,-0.38,10.11,65.00,19.00,31.00,0.01,-0.05,-0.04,200,214,231 ,
6050,108.00,-656.00,16964.00,0.10,-0.35,10.01,65.00,20.00,31.00,-0.05,0.13,-0.04,198,210,230 ,
6750,208.00,-636.00,16632.00,0.07,-0.35,10.01,64.00,19.00,33.00,0.08,0.07,0.08,202,211,228 ,
7449,176.00,-600.00,16768.00,0.14,-0.35,10.07,67.00,20.00,32.00,0.08,0.01,0.14,198,213,226 ,
8150,144.00,-572.00,16752.00,0.06,-0.36,10.04,65.00,20.00,33.00,0.01,0.13,0.08,201,211,226 ,
8849,120.00,-588.00,16884.00,0.04,-0.39,10.08,67.00,17.00,33.00,0.20,-0.05,0.14,200,212,225 ,
9550,48.00,-592.00,16760.00,0.08,-0.34,10.08,68.00,22.00,31.00,0.01,0.01,-0.10,198,210,225 ,
10249,132.00,-476.00,16852.00,0.09,-0.34,10.06,65.00,17.00,30.00,0.08,0.07,-0.10,199,211,225 ,
button pressed
697,0.00,-560.00,16832.00,0.07,-0.39,10.11,66.00,19.00,32.00,0.14,0.07,0.14,195,217,212 ,
1396,92.00,-656.00,16788.00,0.09,-0.39,10.09,62.00,21.00,30.00,-0.29,0.07,0.20,189,211,213 ,
2052,1376.00,-484.00,2720.00,-2.49,-1.46,19.60,79.00,-31.00,30.00,0.50,-0.42,0.20,194,209,215 ,141
2067,88.00,-316.00,15344.00,0.06,-0.39,10.33,64.00,24.00,38.00,0.20,-0.11,0.14,193,217,254 ,69
2244,84.00,-540.00,16884.00,0.48,-0.19,9.09,67.00,15.00,32.00,0.08,-0.66,0.14,205,210,237 ,25
2943,172.00,-524.00,16824.00,0.14,-0.33,10.13,63.00,19.00,32.00,-0.11,0.01,0.08,200,196,229 ,
3644,160.00,-492.00,16792.00,0.11,-0.33,10.08,66.00,21.00,32.00,0.01,0.13,0.14,195,203,226 ,
4343,240.00,-692.00,16872.00,0.10,-0.38,10.06,66.00,20.00,32.00,0.01,-0.05,0.08,198,209,228 ,
5044,100.00,-592.00,16876.00,0.05,-0.37,10.09,66.00,20.00,34.00,-0.05,0.07,0.08,196,208,228 ,
5743,112.00,-552.00,16832.00,0.07,-0.33,10.05,68.00,19.00,31.00,0.14,-0.11,0.02,195,208,228 ,
6443,80.00,-612.00,16788.00,0.12,-0.31,10.06,66.00,23.00,28.00,0.08,0.13,0.02,196,208,230 ,
7143,196.00,-688.00,16868.00,0.15,-0.38,10.03,65.00,18.00,32.00,0.08,-0.05,0.14,200,210,230 ,
7843,136.00,-592.00,16728.00,0.07,-0.34,10.03,67.00,18.00,31.00,0.08,-0.11,0.14,199,213,232 ,
8543,208.00,-600.00,16772.00,0.13,-0.36,10.11,64.00,18.00,31.00,0.01,0.01,-0.04,198,209,232 ,
9243,172.00,-596.00,16860.00,0.13,-0.30,10.07,68.00,21.00,33.00,0.14,0.07,-0.04,197,209,232 ,
9942,80.00,-668.00,17004.00,0.06,-0.40,10.18,68.00,17.00,32.00,0.01,-0.17,0.14,198,210,231 ,
10643,200.00,-540.00,16824.00,0.07,-0.33,10.08,62.00,16.00,32.00,-0.23,-0.11,-0.04,201,211,232 ,
button pressed
697,136.00,-564.00,16812.00,0.09,-0.35,10.08,64.00,19.00,31.00,-0.05,0.25,0.14,193,183,210 ,
1012,0.00,-308.00,15528.00,0.04,-0.35,10.26,70.00,24.00,33.00,0.20,-0.11,0.20,191,190,216 ,731
1025,2440.00,408.00,9308.00,-1.66,-0.91,11.34,70.00,-28.00,30.00,0.38,-0.36,-0.04,193,192,218 ,129
1725,104.00,-532.00,16932.00,0.06,-0.32,10.05,66.00,23.00,30.00,0.14,0.01,-0.04,197,195,221 ,
2425,212.00,-584.00,16772.00,0.13,-0.35,10.03,65.00,20.00,31.00,-0.05,0.07,0.02,191,200,223 ,
3124,248.00,-640.00,16852.00,0.10,-0.29,10.08,67.00,18.00,28.00,0.08,0.01,0.08,195,205,226 ,
3825,72.00,-564.00,16848.00,0.11,-0.33,10.12,63.00,19.00,31.00,-0.23,0.13,0.02,196,206,230 ,
4524,140.00,-596.00,16908.00,0.09,-0.34,10.09,66.00,21.00,27.00,0.08,-0.05,-0.17,199,208,231 ,
5225,160.00,-564.00,16956.00,0.03,-0.36,10.09,66.00,18.00,31.00,0.08,-0.17,0.02,195,208,233 ,
5924,128.00,-516.00,16740.00,0.08,-0.31,10.09,65.00,20.00,32.00,-0.05,0.25,-0.04,194,207,233 ,
6625,208.00,-532.00,16824.00,0.12,-0.32,10.06,66.00,22.00,31.00,-0.05,0.01,-0.04,195,208,232 ,
7325,92.00,-552.00,16892.00,0.11,-0.35,10.11,67.00,18.00,29.00,0.01,-0.05,-0.10,193,207,233 ,
8024,100.00,-588.00,16944.00,0.05,-0.33,10.01,65.00,18.00,31.00,-0.11,-0.05,0.08,196,206,232 ,
8725,124.00,-496.00,17028.00,0.07,-0.33,10.05,65.00,16.00,33.00,-0.05,0.01,-0.04,196,208,233 ,
9424,96.00,-580.00,16892.00,0.01,-0.32,10.10,65.00,22.00,35.00,0.08,0.01,0.02,197,207,232 ,
10125,156.00,-544.00,16664.00,0.15,-0.33,10.03,65.00,22.00,32.00,0.08,0.01,-0.04,200,206,232 ,
button pressed
696,220.00,-480.00,16932.00,0.07,-0.32,10.04,67.00,20.00,29.00,0.14,-0.11,0.02,183,235,200 ,
1106,2564.00,784.00,6368.00,-2.04,-1.51,13.84,74.00,-24.00,29.00,0.32,-0.30,0.08,182,219,198 ,137
1128,-76.00,-628.00,16980.00,0.09,-0.32,10.09,66.00,28.00,32.00,0.08,0.56,-0.04,189,214,202 ,1257
1829,60.00,-548.00,16832.00,0.05,-0.29,9.97,64.00,19.00,32.00,-0.11,-0.05,0.08,184,205,203 ,
2528,124.00,-552.00,16796.00,0.07,-0.36,10.14,64.00,19.00,32.00,-0.05,0.01,0.08,186,206,204 ,
3229,200.00,-584.00,16892.00,0.09,-0.34,10.09,66.00,18.00,32.00,-0.05,-0.11,0.14,187,207,206 ,
3928,128.00,-736.00,16780.00,0.08,-0.37,10.08,62.00,20.00,29.00,-0.11,0.01,0.02,185,208,206 ,
4628,172.00,-576.00,16860.00,0.09,-0.38,10.06,66.00,20.00,33.00,-0.11,0.07,0.20,186,208,208 ,
5328,112.00,-540.00,16828.00,0.12,-0.34,9.99,65.00,19.00,30.00,0.08,0.01,0.02,187,209,210 ,
6028,180.00,-608.00,16740.00,0.05,-0.35,10.07,64.00,17.00,31.00,0.01,-0.11,0.08,188,209,210 ,
6729,224.00,-564.00,16904.00,0.07,-0.33,10.04,67.00,16.00,33.00,0.14,-0.11,-0.04,190,210,212 ,
7428,76.00,-612.00,16856.00,0.09,-0.34,10.17,64.00,21.00,31.00,-0.17,0.07,0.14,189,207,214 ,
8128,148.00,-552.00,16912.00,0.15,-0.28,10.05,65.00,21.00,33.00,-0.11,0.07,0.08,192,207,214 ,
8828,152.00,-596.00,16832.00,0.08,-0.32,10.07,62.00,14.00,30.00,0.01,-0.11,0.08,189,206,214 ,
9528,156.00,-536.00,16980.00,0.09,-0.36,10.09,64.00,20.00,31.00,0.01,-0.11,0.02,190,206,213 ,
10228,180.00,-584.00,16748.00,0.07,-0.37,10.05,64.00,21.00,29.00,-0.05,-0.05,-0.04,190,208,214 ,
button pressed
696,164.00,-628.00,16924.00,0.09,-0.35,10.10,68.00,23.00,28.00,-0.05,0.01,-0.04,194,225,225 ,
902,36.00,-584.00,17168.00,0.02,-0.35,10.27,67.00,29.00,30.00,0.08,0.92,0.08,192,214,223 ,1721
1032,280.00,-468.00,16640.00,0.37,-0.19,9.19,65.00,16.00,32.00,0.20,-0.72,-0.17,191,208,216 ,13
1732,104.00,-540.00,16844.00,0.13,-0.37,10.09,66.00,18.00,31.00,-0.11,-0.05,-0.10,190,198,218 ,
2432,140.00,-572.00,16792.00,0.06,-0.31,10.07,65.00,18.00,33.00,0.01,0.01,0.20,188,207,214 ,
3132,64.00,-588.00,16836.00,0.06,-0.36,10.07,66.00,20.00,31.00,-0.11,-0.11,0.08,188,206,214 ,
3832,148.00,-608.00,16792.00,0.07,-0.32,10.11,67.00,18.00,29.00,0.14,-0.05,0.02,191,206,215 ,
4532,124.00,-528.00,16912.00,0.06,-0.36,10.16,65.00,19.00,29.00,0.01,0.01,0.08,190,204,214 ,
5231,140.00,-624.00,16972.00,0.04,-0.36,10.11,64.00,19.00,30.00,0.01,0.13,0.08,187,205,215 ,
5932,136.00,-520.00,16796.00,0.11,-0.33,10.04,65.00,19.00,29.00,-0.11,0.01,-0.04,188,202,214 ,
6631,108.00,-548.00,16820.00,0.07,-0.34,10.08,66.00,19.00,29.00,0.01,0.13,0.02,187,124,186 ,
7332,92.00,-576.00,16804.00,0.04,-0.31,10.02,66.00,20.00,31.00,0.01,0.13,-0.04,188,177,199 ,
8031,160.00,-616.00,16768.00,0.05,-0.33,10.10,68.00,17.00,32.00,0.14,-0.11,0.26,188,191,205 ,
8731,136.00,-528.00,16844.00,0.10,-0.32,10.06,67.00,17.00,33.00,0.08,0.07,0.08,187,226,216 ,
9431,88.00,-532.00,16812.00,0.05,-0.32,10.06,67.00,21.00,33.00,0.08,0.07,-0.04,188,179,201 ,
10131,112.00,-508.00,16832.00,0.08,-0.34,10.14,64.00,21.00,32.00,0.14,0.01,0.26,195,364,265 ,
button pressed
695,140.00,-524.00,16688.00,0.05,-0.33,10.03,67.00,22.00,33.00,0.14,0.19,0.08,188,221,212 ,
907,1456.00,20.00,14044.00,0.99,-0.20,2.43,73.00,-18.00,28.00,0.87,-0.72,0.26,188,213,210 ,137
926,836.00,-244.00,15924.00,0.19,-0.18,8.80,67.00,22.00,30.00,0.20,0.86,0.32,188,207,215 ,624
1098,164.00,-632.00,16832.00,0.42,-0.08,8.88,67.00,14.00,35.00,0.20,-0.84,0.08,186,197,201 ,40
1798,144.00,-524.00,16844.00,0.13,-0.33,10.00,65.00,21.00,29.00,-0.17,0.19,0.02,189,193,204 ,
2498,124.00,-588.00,16832.00,0.06,-0.33,10.13,64.00,22.00,31.00,-0.05,0.19,0.20,187,202,206 ,
3198,244.00,-560.00,16708.00,0.06,-0.33,10.03,68.00,19.00,32.00,0.14,0.01,0.08,182,206,207 ,
3897,224.00,-620.00,16636.00,0.12,-0.37,10.00,63.00,21.00,31.00,0.01,0.07,-0.10,186,205,206 ,
4598,204.00,-576.00,16776.00,0.12,-0.40,10.09,66.00,20.00,28.00,0.20,0.13,0.02,185,206,206 ,
5297,160.00,-492.00,16920.00,0.11,-0.37,10.18,65.00,15.00,30.00,0.01,-0.11,-0.04,187,205,206 ,
5998,124.00,-708.00,16896.00,0.09,-0.35,10.10,63.00,20.00,34.00,-0.17,0.13,0.20,186,206,205 ,
6697,216.00,-516.00,16764.00,0.09,-0.33,10.15,68.00,18.00,32.00,0.08,-0.11,0.14,183,206,204 ,
7397,244.00,-556.00,16848.00,0.12,-0.35,9.99,63.00,22.00,30.00,-0.11,0.19,0.02,187,204,203 ,
8097,176.00,-524.00,16868.00,0.07,-0.34,10.10,69.00,14.00,31.00,0.14,-0.36,0.14,186,206,202 ,
8797,108.00,-592.00,16924.00,0.03,-0.32,10.08,67.00,19.00,29.00,-0.11,-0.05,-0.10,183,204,202 ,
9498,136.00,-604.00,16900.00,0.10,-0.33,10.05,64.00,18.00,31.00,-0.05,0.07,0.08,185,205,203 ,
10197,132.00,-536.00,16708.00,0.10,-0.33,10.05,65.00,17.00,31.00,0.08,-0.05,-0.04,184,203,201 ,
button pressed
697,136.00,-584.00,16832.00,0.13,-0.33,10.10,67.00,16.00,30.00,-0.17,-0.05,-0.04,186,242,215 ,
782,492.00,-440.00,15820.00,0.13,-0.25,9.85,67.00,15.00,31.00,0.08,0.68,0.14,186,223,213 ,1635
1482,172.00,-520.00,16900.00,0.11,-0.33,10.06,66.00,21.00,30.00,0.01,0.07,0.02,188,210,215 ,
2182,88.00,-484.00,16756.00,0.10,-0.32,10.05,67.00,21.00,31.00,-0.23,0.01,0.20,189,212,215 ,
2882,128.00,-564.00,16880.00,0.10,-0.37,10.07,65.00,20.00,31.00,-0.11,-0.05,0.08,188,209,218 ,
3581,104.00,-544.00,16776.00,0.01,-0.29,10.08,68.00,20.00,32.00,0.01,0.01,0.02,188,209,218 ,
4282,220.00,-468.00,16860.00,0.08,-0.27,10.12,66.00,20.00,33.00,-0.05,0.07,0.08,191,208,220 ,
4342,148.00,-560.00,16872.00,0.07,-0.36,10.11,66.00,22.00,33.00,0.14,0.13,0.14,192,212,221 ,
4444,232.00,-556.00,16900.00,0.07,-0.33,10.05,65.00,19.00,32.00,0.01,-0.05,0.02,194,206,219 ,
4496,124.00,-580.00,16900.00,0.12,-0.36,10.09,67.00,19.00,31.00,0.14,0.01,0.02,191,213,221 ,
4515,180.00,-532.00,16816.00,0.10,-0.34,10.01,63.00,18.00,30.00,-0.05,-0.05,0.08,190,181,211 ,
4675,40.00,-480.00,16992.00,0.10,-0.33,10.09,65.00,22.00,31.00,0.01,0.13,-0.17,194,182,209 ,
5375,176.00,-652.00,16788.00,0.08,-0.34,10.05,67.00,21.00,30.00,0.14,0.01,0.08,194,187,210 ,
6075,160.00,-580.00,16916.00,0.01,-0.35,10.06,68.00,22.00,29.00,0.08,0.19,-0.04,190,203,216 ,
6775,84.00,-652.00,16784.00,0.08,-0.37,10.05,65.00,16.00,32.00,-0.11,-0.17,0.02,187,206,217 ,
7475,188.00,-576.00,16800.00,0.02,-0.36,10.04,60.00,18.00,30.00,-0.23,-0.05,-0.10,195,209,220 ,
8175,120.00,-556.00,17012.00,0.15,-0.32,10.08,67.00,19.00,30.00,-0.05,0.13,0.02,193,211,222 ,
8874,208.00,-576.00,16832.00,0.09,-0.38,10.15,65.00,18.00,32.00,0.01,-0.11,0.02,194,209,224 ,
9575,208.00,-644.00,16828.00,0.08,-0.37,10.01,64.00,18.00,30.00,-0.11,0.01,-0.10,195,209,223 ,
10274,104.00,-504.00,16896.00,0.11,-0.34,10.01,65.00,20.00,30.00,-0.05,0.01,-0.04,194,207,225 ,
button pressed
696,108.00,-568.00,16772.00,0.06,-0.34,10.03,64.00,22.00,31.00,0.08,0.07,0.32,192,210,214 ,
1117,908.00,-444.00,14860.00,0.13,-0.22,10.40,65.00,31.00,29.00,0.08,0.62,0.20,190,207,215 ,573
1816,280.00,-532.00,16684.00,0.12,-0.39,10.00,65.00,17.00,29.00,0.14,0.07,-0.10,172,197,190 ,
2516,76.00,-612.00,16676.00,0.09,-0.34,10.09,66.00,19.00,32.00,0.14,0.01,0.08,192,206,219 ,
3216,160.00,-592.00,16728.00,0.11,-0.35,10.06,67.00,21.00,29.00,-0.05,0.07,-0.04,192,207,220 ,
3916,100.00,-544.00,16776.00,0.11,-0.34,10.02,67.00,20.00,30.00,0.01,0.07,0.14,192,208,221 ,
4616,76.00,-632.00,16776.00,0.10,-0.32,10.10,66.00,21.00,32.00,0.01,0.13,0.08,191,204,219 ,
5316,152.00,-524.00,16840.00,0.08,-0.33,10.10,66.00,20.00,30.00,0.14,0.19,0.08,192,206,219 ,
6015,220.00,-584.00,16804.00,0.14,-0.38,10.10,66.00,18.00,31.00,-0.05,0.01,0.08,190,207,216 ,
6716,128.00,-596.00,16952.00,0.11,-0.34,10.13,67.00,18.00,29.00,0.08,-0.05,0.08,188,204,211 ,
7415,140.00,-584.00,16852.00,0.07,-0.31,10.09,65.00,23.00,33.00,-0.05,0.13,0.14,187,205,210 ,
7597,80.00,-548.00,16916.00,0.08,-0.34,10.06,66.00,17.00,29.00,0.01,-0.05,-0.29,189,208,209 ,
8297,132.00,-544.00,16904.00,0.12,-0.33,10.09,66.00,15.00,31.00,0.01,-0.05,0.02,187,194,204 ,
8997,68.00,-624.00,16784.00,0.13,-0.36,10.04,63.00,18.00,32.00,-0.11,0.01,0.14,185,201,205 ,
9697,156.00,-660.00,16820.00,0.08,-0.37,10.13,66.00,21.00,29.00,0.01,0.13,0.02,183,203,206 ,
10397,204.00,-484.00,16888.00,0.11,-0.28,10.13,69.00,18.00,31.00,0.01,-0.11,0.08,188,205,205 ,
button pressed
695,136.00,-652.00,16976.00,0.10,-0.38,10.17,65.00,19.00,29.00,-0.05,0.07,-0.10,195,264,241 ,
1372,1588.00,328.00,13736.00,0.49,-0.40,2.57,83.00,-39.00,34.00,0.99,-0.23,0.14,193,231,235 ,139
1391,328.00,-500.00,16276.00,0.18,-0.28,9.86,62.00,11.00,31.00,-0.05,-0.36,0.02,195,216,243 ,2
1436,92.00,-572.00,16876.00,0.05,-0.41,10.07,63.00,20.00,31.00,-0.05,0.07,-0.04,193,276,244 ,
1449,40.00,-564.00,16784.00,0.02,-0.34,10.04,64.00,19.00,31.00,-0.17,0.13,0.08,195,189,220 ,
1569,188.00,-588.00,16688.00,0.51,0.15,7.88,71.00,13.00,30.00,0.20,-0.66,-0.04,195,179,215 ,32
2268,208.00,-588.00,16748.00,0.13,-0.38,10.03,65.00,22.00,31.00,0.01,0.19,0.14,197,178,214 ,
2969,100.00,-516.00,16908.00,0.10,-0.31,10.05,67.00,23.00,32.00,0.08,0.13,0.08,192,197,217 ,
3668,116.00,-652.00,16832.00,0.07,-0.38,10.08,64.00,17.00,32.00,-0.11,-0.05,0.14,192,208,222 ,
4368,116.00,-548.00,16908.00,0.08,-0.35,10.10,67.00,22.00,32.00,-0.05,0.01,0.02,191,210,222 ,
5068,64.00,-552.00,16916.00,0.02,-0.32,10.09,66.00,20.00,32.00,-0.05,0.01,-0.04,191,205,220 ,
5768,128.00,-576.00,16872.00,0.10,-0.37,10.07,67.00,21.00,33.00,-0.17,-0.11,0.08,189,130,193 ,
6468,172.00,-560.00,16936.00,0.06,-0.35,10.05,63.00,17.00,30.00,-0.05,0.01,-0.04,187,181,207 ,
7168,116.00,-484.00,16800.00,0.07,-0.30,10.08,66.00,17.00,33.00,-0.05,-0.05,0.08,191,302,249 ,
7867,204.00,-548.00,16764.00,0.15,-0.31,10.04,65.00,19.00,33.00,-0.05,0.01,0.08,195,253,236 ,
8568,184.00,-564.00,16932.00,0.18,-0.34,10.07,66.00,17.00,28.00,-0.17,-0.11,-0.10,192,231,230 ,
9268,48.00,-564.00,16696.00,0.07,-0.30,10.05,66.00,17.00,33.00,0.01,0.13,0.20,193,222,227 ,
9968,232.00,-552.00,16808.00,0.12,-0.33,10.07,63.00,23.00,32.00,-0.11,0.25,-0.04,194,215,225 ,
10668,200.00,-508.00,16888.00,0.09,-0.29,10.15,63.00,17.00,28.00,-0.17,0.13,0.08,191,213,221 ,
button pressed
696,144.00,-584.00,16804.00,0.07,-0.29,10.08,63.00,17.00,33.00,-0.17,-0.05,0.20,188,225,213 ,
1085,136.00,-684.00,16968.00,-0.02,-0.45,10.48,60.00,18.00,29.00,4.22,2.45,1.48,183,344,251 ,6878
1333,192.00,-584.00,16784.00,0.06,-0.34,10.24,63.00,19.00,31.00,-0.11,-0.11,0.20,202,313,254 ,12113
2033,136.00,-596.00,16904.00,0.07,-0.35,10.06,68.00,21.00,33.00,0.14,0.07,0.14,191,380,273 ,
2698,136.00,-524.00,16920.00,0.04,-0.29,10.12,64.00,20.00,30.00,-0.11,-0.11,-0.04,191,333,261 ,4079
3397,144.00,-592.00,16892.00,0.07,-0.38,10.03,67.00,16.00,32.00,0.08,-0.05,0.08,0,0,167 ,
4098,160.00,-556.00,16864.00,0.08,-0.31,10.07,66.00,19.00,32.00,0.01,-0.11,0.20,0,218,87 ,
4189,148.00,-644.00,16796.00,0.17,-0.39,10.13,66.00,22.00,33.00,0.08,-0.23,0.08,0,202,95 ,257
4200,148.00,-584.00,16792.00,0.08,-0.33,10.04,63.00,24.00,32.00,-0.17,0.13,0.08,0,116,74 ,3
4260,228.00,-576.00,16888.00,0.07,-0.32,10.12,65.00,19.00,30.00,0.08,-0.11,0.14,0,63,59 ,2
4299,160.00,-584.00,16692.00,0.01,-0.33,9.98,63.00,19.00,29.00,-0.05,0.01,-0.10,0,32,53 ,5
4334,92.00,-640.00,16740.00,0.08,-0.35,10.09,66.00,23.00,30.00,0.01,0.19,0.14,0,111,80 ,1
4359,116.00,-500.00,16820.00,0.12,-0.31,10.03,66.00,19.00,30.00,0.01,0.01,-0.04,0,112,87 ,80
4389,68.00,-504.00,16740.00,0.07,-0.37,10.03,66.00,15.00,31.00,0.08,-0.23,-0.04,0,85,90 ,
4399,36.00,-584.00,16856.00,0.02,-0.35,10.08,68.00,18.00,31.00,0.08,0.38,0.14,0,56,86 ,
4416,244.00,-592.00,16836.00,0.10,-0.32,10.08,64.00,10.00,31.00,-0.17,-0.42,-0.04,5,17,74 ,
4542,144.00,-588.00,16904.00,0.06,-0.36,10.08,64.00,17.00,32.00,-0.05,-0.17,0.14,0,23,52 ,87
4566,180.00,-576.00,16932.00,0.08,-0.37,10.02,63.00,21.00,29.00,-0.11,0.01,-0.04,285,130,793 ,92
4999,156.00,-604.00,16860.00,0.09,-0.30,10.02,66.00,21.00,31.00,0.08,0.13,-0.10,277,154,797 ,33
5699,88.00,-524.00,16892.00,0.01,-0.31,10.06,67.00,19.00,31.00,0.08,0.01,0.14,248,308,837 ,
6400,216.00,-652.00,16808.00,0.05,-0.34,10.16,64.00,18.00,29.00,0.14,-0.11,-0.04,228,255,801 ,
7099,156.00,-620.00,16892.00,0.02,-0.35,10.08,64.00,16.00,32.00,-0.17,0.01,0.08,250,215,800 ,
7799,116.00,-528.00,16808.00,0.05,-0.35,10.06,65.00,20.00,31.00,-0.05,0.01,-0.04,252,251,804 ,
8499,156.00,-524.00,16780.00,0.10,-0.35,10.02,66.00,22.00,30.00,-0.05,0.07,-0.10,219,234,787 ,
9199,144.00,-560.00,16848.00,0.11,-0.33,10.05,67.00,20.00,31.00,-0.05,0.07,0.20,218,214,763 ,
9899,136.00,-656.00,16972.00,0.05,-0.34,10.17,64.00,18.00,35.00,0.08,0.07,0.20,217,265,758 ,
10599,176.00,-500.00,16768.00,0.11,-0.32,10.03,67.00,21.00,31.00,0.08,0.07,0.02,234,140,704 ,
button pressed
695,164.00,-564.00,16840.00,0.08,-0.32,10.06,64.00,18.00,32.00,-0.05,-0.11,-0.04,203,175,662 ,
1102,228.00,-520.00,16424.00,0.17,-0.27,9.88,66.00,16.00,30.00,-0.05,-0.17,-0.04,217,163,639 ,1528
1802,148.00,-596.00,16804.00,0.05,-0.35,10.05,68.00,21.00,31.00,0.08,0.13,-0.04,186,146,626 ,
2502,224.00,-640.00,16872.00,0.12,-0.32,10.08,67.00,18.00,32.00,0.14,0.01,0.02,198,141,600 ,
3202,164.00,-740.00,16844.00,0.14,-0.42,10.00,67.00,18.00,33.00,-0.11,-0.05,0.14,167,141,572 ,
3902,144.00,-624.00,16932.00,0.09,-0.35,10.04,68.00,19.00,31.00,0.08,0.01,0.20,166,137,561 ,
4601,252.00,-672.00,16956.00,0.05,-0.39,10.14,63.00,18.00,32.00,-0.23,-0.05,-0.04,178,138,543 ,
5302,168.00,-552.00,16836.00,0.07,-0.32,10.05,68.00,19.00,30.00,0.08,-0.05,-0.04,161,135,525 ,
6002,196.00,-556.00,16864.00,0.15,-0.37,10.05,63.00,20.00,33.00,-0.05,-0.05,0.14,155,132,509 ,
6702,132.00,-524.00,16892.00,0.13,-0.28,10.10,67.00,16.00,33.00,0.08,-0.17,0.08,161,138,494 ,
7402,172.00,-600.00,16844.00,0.13,-0.36,10.06,64.00,21.00,31.00,0.08,0.13,0.08,131,132,477 ,
8101,184.00,-552.00,16940.00,0.10,-0.33,10.10,66.00,20.00,32.00,0.01,0.07,-0.04,149,130,464 ,
8802,116.00,-496.00,16820.00,0.03,-0.33,10.11,66.00,21.00,33.00,-0.05,0.19,-0.10,145,154,451 ,
9501,140.00,-516.00,16788.00,0.08,-0.31,10.04,67.00,20.00,31.00,0.01,0.13,0.02,143,162,450 ,
10202,184.00,-540.00,16884.00,0.17,-0.35,10.06,66.00,18.00,32.00,0.08,0.01,-0.10,137,155,437 ,
button pressed
696,228.00,-588.00,16836.00,0.09,-0.35,10.02,67.00,17.00,30.00,0.01,-0.05,-0.17,107,164,361 ,
1052,176.00,-420.00,17676.00,5.79,1.02,-3.25,-89.00,-374.00,25.00,-2.06,-17.61,0.81,89,134,346 ,53
1080,144.00,-584.00,16952.00,0.07,-0.35,10.03,65.00,19.00,31.00,-0.11,0.01,0.08,98,111,347 ,
1216,376.00,-488.00,16632.00,0.83,0.02,6.99,61.00,25.00,30.00,0.26,-1.21,0.02,97,90,322 ,5
1915,40.00,-564.00,16804.00,0.11,-0.30,10.08,67.00,16.00,34.00,0.08,-0.17,0.08,81,73,303 ,
2615,112.00,-596.00,16832.00,0.06,-0.34,10.08,63.00,17.00,31.00,-0.11,-0.05,0.08,84,111,310 ,
3315,176.00,-504.00,16908.00,0.15,-0.32,10.07,65.00,20.00,31.00,0.01,0.25,0.02,87,123,308 ,
4015,96.00,-540.00,16796.00,0.03,-0.33,10.13,68.00,18.00,32.00,-0.05,-0.11,0.08,89,125,301 ,
4715,88.00,-580.00,16804.00,0.05,-0.35,10.11,68.00,19.00,33.00,0.01,0.01,0.20,85,126,296 ,
5415,104.00,-600.00,16740.00,0.07,-0.34,10.10,63.00,18.00,32.00,0.01,0.07,0.08,79,124,291 ,
6114,112.00,-516.00,16888.00,0.07,-0.31,10.13,66.00,17.00,30.00,0.01,0.01,0.02,71,123,285 ,
6815,72.00,-568.00,16848.00,0.05,-0.39,10.10,65.00,19.00,29.00,0.01,-0.11,0.08,80,128,280 ,
7514,152.00,-544.00,16980.00,0.06,-0.30,10.08,62.00,20.00,31.00,-0.23,0.07,-0.04,66,124,275 ,
8215,192.00,-612.00,16832.00,0.17,-0.39,10.17,62.00,20.00,29.00,-0.05,0.19,-0.04,73,126,266 ,
8914,136.00,-588.00,16820.00,0.08,-0.39,10.09,68.00,20.00,33.00,0.20,0.07,0.08,76,128,278 ,
9615,128.00,-536.00,16664.00,0.03,-0.34,10.11,64.00,20.00,31.00,0.01,0.07,0.20,72,128,262 ,
10314,120.00,-580.00,16852.00,0.08,-0.34,10.11,65.00,22.00,33.00,-0.05,0.19,0.02,73,128,258 ,
button pressed
697,172.00,-608.00,16808.00,0.10,-0.32,10.13,67.00,15.00,31.00,0.14,-0.17,-0.04,58,152,242 ,
1393,136.00,-504.00,16424.00,0.15,-0.31,9.78,66.00,19.00,27.00,0.01,-0.42,-0.17,63,125,233 ,1791
1582,272.00,-572.00,16976.00,0.77,-0.29,8.04,65.00,11.00,33.00,0.20,-0.84,0.14,56,126,231 ,42
2283,96.00,-592.00,16780.00,0.06,-0.34,10.06,64.00,22.00,31.00,0.01,0.13,0.02,49,95,211 ,
2982,116.00,-572.00,16832.00,0.10,-0.33,10.16,68.00,20.00,34.00,0.14,0.07,0.14,55,114,219 ,
3683,100.00,-568.00,16908.00,0.06,-0.31,10.04,65.00,19.00,30.00,0.08,0.01,-0.10,54,118,215 ,
4382,84.00,-600.00,16924.00,0.05,-0.36,10.05,65.00,16.00,31.00,0.01,-0.11,0.02,55,115,212 ,
5082,228.00,-532.00,16800.00,0.06,-0.37,10.11,67.00,21.00,31.00,0.14,0.07,-0.04,49,116,211 ,
5782,188.00,-564.00,16996.00,0.11,-0.35,10.19,67.00,22.00,34.00,-0.11,0.31,0.26,45,117,209 ,
6482,72.00,-584.00,16756.00,0.11,-0.34,10.01,64.00,21.00,33.00,0.01,0.07,0.02,56,118,208 ,
7182,88.00,-520.00,16740.00,0.10,-0.32,10.08,67.00,22.00,33.00,0.01,-0.05,0.08,45,119,207 ,
7882,128.00,-560.00,16892.00,0.10,-0.33,10.06,67.00,18.00,33.00,0.14,-0.17,0.14,46,117,203 ,
8581,252.00,-580.00,16820.00,0.11,-0.34,10.12,65.00,20.00,31.00,0.01,0.25,-0.04,45,118,202 ,
9282,116.00,-640.00,16792.00,0.08,-0.41,10.07,64.00,20.00,34.00,-0.05,-0.05,0.14,52,120,201 ,
9981,160.00,-584.00,16896.00,0.07,-0.30,10.10,65.00,18.00,32.00,-0.11,0.07,0.08,48,119,199 ,
10682,72.00,-640.00,16756.00,0.09,-0.33,10.03,67.00,20.00,31.00,-0.05,0.07,-0.04,45,119,192 ,
button pressed
695,148.00,-572.00,16652.00,0.11,-0.41,10.04,66.00,18.00,32.00,0.08,0.01,-0.10,43,122,178 ,
1396,120.00,-552.00,16788.00,0.09,-0.35,10.03,67.00,21.00,33.00,-0.11,0.13,0.14,40,148,187 ,
1652,-112.00,-1012.00,17244.00,0.21,-0.30,9.73,66.00,42.00,25.00,-0.17,1.23,-0.10,36,127,182 ,587
1670,176.00,-568.00,16560.00,0.10,-0.41,9.99,69.00,14.00,28.00,0.08,0.38,-0.04,36,105,218 ,
1806,80.00,-640.00,16952.00,0.38,-0.64,9.16,63.00,15.00,30.00,-0.23,-0.11,-0.17,39,67,158 ,57
2506,72.00,-604.00,16844.00,0.06,-0.37,10.11,66.00,22.00,32.00,-0.11,0.13,-0.04,34,67,156 ,
3206,196.00,-584.00,16844.00,0.09,-0.28,10.06,65.00,20.00,31.00,0.01,-0.11,-0.04,35,113,167 ,
3905,204.00,-500.00,16824.00,0.09,-0.33,10.05,65.00,21.00,30.00,-0.11,0.07,0.14,38,119,167 ,
4606,188.00,-576.00,16880.00,0.11,-0.35,10.04,64.00,21.00,33.00,-0.11,0.13,0.26,38,120,167 ,
5305,84.00,-596.00,16808.00,0.09,-0.35,10.06,64.00,19.00,30.00,0.01,-0.05,0.02,33,119,166 ,
6006,196.00,-524.00,16828.00,0.07,-0.33,10.08,66.00,18.00,30.00,-0.05,-0.05,0.02,42,118,166 ,
6705,64.00,-500.00,16708.00,0.06,-0.35,10.07,67.00,18.00,29.00,0.01,-0.11,0.14,37,120,161 ,
7405,112.00,-564.00,16880.00,0.07,-0.36,10.16,64.00,20.00,28.00,-0.05,0.01,-0.10,37,118,166 ,
8105,112.00,-468.00,16820.00,0.10,-0.30,10.11,64.00,21.00,30.00,-0.05,0.07,0.02,41,120,165 ,
8805,172.00,-628.00,16892.00,0.08,-0.40,10.05,68.00,20.00,30.00,0.01,0.13,-0.17,36,119,165 ,
9505,152.00,-532.00,16888.00,0.09,-0.33,10.10,67.00,17.00,31.00,-0.05,-0.05,-0.04,40,116,165 ,
10205,184.00,-580.00,16876.00,0.06,-0.32,10.04,65.00,16.00,31.00,-0.17,-0.05,-0.04,31,117,164 ,
button pressed
695,204.00,-548.00,16760.00,0.08,-0.33,10.12,65.00,17.00,31.00,0.14,0.01,0.08,42,144,177 ,
1164,412.00,-368.00,17516.00,-0.12,-0.56,10.70,179.00,110.00,55.00,-3.83,4.70,-0.90,38,123,174 ,519
1177,160.00,-644.00,16472.00,0.11,-0.29,9.72,63.00,19.00,30.00,-0.05,-0.05,-0.04,41,109,176 ,25
1877,192.00,-552.00,16736.00,0.10,-0.33,10.10,68.00,18.00,30.00,0.01,-0.05,-0.04,44,75,160 ,
2577,144.00,-552.00,16844.00,0.04,-0.35,10.12,65.00,21.00,33.00,-0.17,0.07,0.26,40,112,171 ,
3277,232.00,-600.00,16828.00,0.08,-0.35,10.10,66.00,15.00,28.00,-0.17,-0.23,0.08,38,118,174 ,
3977,120.00,-592.00,16740.00,0.11,-0.30,9.99,66.00,17.00,31.00,0.08,0.01,-0.04,39,118,174 ,
4676,128.00,-608.00,16896.00,0.08,-0.36,10.11,64.00,14.00,32.00,-0.11,-0.11,0.20,41,119,177 ,
5377,192.00,-504.00,16796.00,0.10,-0.32,10.07,66.00,19.00,34.00,0.08,0.13,0.14,45,121,174 ,
6076,64.00,-560.00,16888.00,0.03,-0.38,10.09,64.00,22.00,28.00,-0.11,0.07,-0.10,48,119,179 ,
6777,128.00,-608.00,16852.00,0.07,-0.31,10.11,67.00,18.00,32.00,0.01,-0.05,0.08,47,119,178 ,
7476,168.00,-568.00,16852.00,0.09,-0.38,10.08,62.00,20.00,32.00,-0.17,0.07,0.02,44,118,178 ,
8177,156.00,-536.00,16680.00,0.09,-0.31,10.01,64.00,19.00,31.00,0.08,-0.17,-0.04,47,119,179 ,
8876,124.00,-556.00,16836.00,0.08,-0.30,10.10,64.00,19.00,30.00,0.14,0.01,-0.23,39,117,179 ,
9576,120.00,-608.00,16964.00,0.07,-0.36,10.15,66.00,20.00,32.00,0.14,0.13,0.02,49,118,175 ,
10276,88.00,-620.00,16880.00,0.01,-0.33,10.14,67.00,18.00,30.00,0.01,0.07,0.02,46,118,180 ,
button pressed
696,200.00,-576.00,16900.00,0.07,-0.37,10.12,63.00,21.00,31.00,0.01,0.01,0.02,38,143,170 ,
1070,676.00,440.00,16032.00,0.07,-0.62,10.21,65.00,-9.00,32.00,0.08,0.44,0.02,36,121,168 ,443
1770,276.00,-596.00,16756.00,0.12,-0.36,10.08,67.00,21.00,30.00,0.14,0.07,0.08,35,106,144 ,
2470,176.00,-624.00,16880.00,0.05,-0.38,10.05,66.00,17.00,34.00,-0.05,-0.05,0.14,40,119,174 ,
3170,160.00,-544.00,16732.00,0.12,-0.33,10.13,66.00,20.00,30.00,0.01,0.19,0.02,42,118,176 ,
3870,108.00,-632.00,16856.00,0.07,-0.42,10.05,61.00,19.00,32.00,-0.29,-0.05,-0.04,48,118,177 ,
4570,120.00,-548.00,16736.00,0.10,-0.34,9.98,65.00,19.00,34.00,-0.11,0.07,0.20,42,117,179 ,
5270,64.00,-568.00,16800.00,0.03,-0.35,10.08,64.00,18.00,33.00,-0.05,-0.05,0.14,47,119,181 ,
5970,152.00,-608.00,16788.00,0.15,-0.38,10.08,64.00,17.00,30.00,0.08,-0.05,0.14,49,118,181 ,
6669,56.00,-592.00,16832.00,0.06,-0.35,10.13,65.00,22.00,31.00,-0.05,0.25,0.02,48,118,181 ,
7370,144.00,-612.00,16780.00,0.08,-0.32,10.05,64.00,20.00,30.00,0.01,-0.11,-0.10,45,117,181 ,
8069,160.00,-520.00,16888.00,0.08,-0.30,10.06,65.00,21.00,32.00,-0.11,0.01,0.14,48,116,180 ,
8770,144.00,-552.00,16808.00,0.11,-0.31,10.08,67.00,22.00,30.00,0.01,0.13,-0.04,51,118,180 ,
9469,132.00,-592.00,16924.00,0.08,-0.34,10.08,63.00,22.00,31.00,0.01,0.13,0.20,45,117,181 ,
10169,92.00,-528.00,16848.00,0.08,-0.33,10.01,65.00,20.00,30.00,-0.05,0.13,-0.17,44,119,183 ,
button pressed
696,112.00,-592.00,16800.00,0.08,-0.37,10.07,66.00,22.00,31.00,-0.05,0.01,0.02,52,173,192 ,
759,164.00,-1116.00,16936.00,-0.28,-0.44,10.95,67.00,14.00,29.00,-0.35,1.78,0.08,48,130,182 ,529
781,220.00,-472.00,16700.00,0.05,-0.36,10.10,64.00,21.00,33.00,0.08,-0.05,0.14,35,87,160 ,22
930,352.00,-1044.00,15768.00,0.38,-0.23,7.06,60.00,13.00,31.00,-0.17,-0.97,-0.04,40,64,157 ,23
1630,72.00,-612.00,16832.00,0.13,-0.34,10.08,66.00,17.00,29.00,-0.11,0.01,-0.10,40,69,150 ,
2330,60.00,-528.00,16728.00,0.09,-0.37,9.99,66.00,20.00,32.00,0.08,0.01,0.02,41,111,168 ,
3030,220.00,-604.00,16780.00,0.09,-0.32,10.03,67.00,21.00,32.00,0.01,0.13,-0.17,42,116,168 ,
3729,140.00,-572.00,16908.00,0.04,-0.34,10.07,65.00,19.00,31.00,-0.11,0.07,-0.04,40,117,169 ,
4430,100.00,-572.00,16872.00,0.06,-0.34,10.07,65.00,17.00,31.00,-0.05,-0.11,0.02,46,117,170 ,
5129,124.00,-652.00,16920.00,0.05,-0.34,10.12,63.00,20.00,34.00,-0.17,-0.11,0.20,47,118,175 ,
5830,204.00,-548.00,16820.00,0.11,-0.35,10.08,67.00,18.00,32.00,0.20,0.01,0.14,48,118,176 ,
6529,244.00,-572.00,16708.00,0.05,-0.36,10.08,64.00,19.00,30.00,-0.05,-0.11,-0.10,49,118,176 ,
7230,124.00,-644.00,16904.00,0.09,-0.40,10.12,65.00,18.00,33.00,-0.05,0.01,0.08,45,117,174 ,
7929,172.00,-600.00,16796.00,0.13,-0.28,10.03,68.00,21.00,34.00,0.14,-0.05,0.08,47,116,175 ,
8629,192.00,-608.00,16936.00,0.13,-0.38,10.17,65.00,18.00,32.00,-0.11,0.07,0.08,50,118,176 ,
9329,80.00,-612.00,16852.00,0.09,-0.35,10.03,68.00,21.00,29.00,0.14,-0.05,-0.23,48,118,176 ,
10029,-40.00,-556.00,16856.00,0.01,-0.36,10.13,67.00,20.00,31.00,0.14,-0.11,0.20,47,118,176 ,
button pressed
696,188.00,-644.00,16904.00,0.12,-0.39,10.12,65.00,19.00,31.00,-0.23,0.01,0.02,43,191,186 ,
1396,152.00,-632.00,16728.00,0.09,-0.31,10.06,66.00,18.00,34.00,-0.05,-0.05,0.02,46,138,170 ,
2096,196.00,-508.00,16952.00,0.04,-0.36,10.14,65.00,21.00,32.00,0.01,0.07,0.02,43,124,165 ,
2601,412.00,-688.00,14360.00,-0.18,-0.32,10.93,67.00,12.00,33.00,-0.05,-0.11,-0.04,43,121,165 ,839
2617,380.00,-692.00,17888.00,-0.01,-0.40,10.05,68.00,13.00,30.00,0.01,-0.72,0.14,59,121,164 ,68
2780,324.00,-616.00,16748.00,0.48,-0.51,8.09,61.00,14.00,32.00,-0.05,-0.78,-0.17,40,80,153 ,6
3480,140.00,-548.00,16784.00,0.08,-0.36,10.07,67.00,18.00,30.00,0.14,-0.11,0.08,41,76,145 ,
4180,108.00,-560.00,16760.00,0.08,-0.31,10.05,68.00,19.00,33.00,0.14,0.01,0.14,37,109,159 ,
4880,196.00,-652.00,16956.00,0.06,-0.37,10.07,64.00,17.00,30.00,-0.17,-0.11,-0.17,44,116,160 ,
5580,156.00,-576.00,16748.00,0.12,-0.30,10.08,68.00,19.00,32.00,0.08,-0.05,0.02,37,117,161 ,
6280,168.00,-584.00,16864.00,0.11,-0.32,10.11,63.00,18.00,32.00,-0.23,-0.05,0.02,39,117,158 ,
6979,108.00,-532.00,16776.00,0.13,-0.32,10.08,67.00,18.00,35.00,0.01,0.01,0.14,43,116,162 ,
7680,124.00,-548.00,16884.00,0.06,-0.32,10.14,66.00,16.00,31.00,0.01,-0.11,-0.10,42,116,161 ,
8379,84.00,-636.00,16728.00,0.09,-0.35,10.06,69.00,20.00,30.00,0.26,0.01,0.02,44,117,162 ,
9080,124.00,-512.00,16908.00,0.11,-0.32,10.18,63.00,17.00,33.00,-0.23,0.01,-0.04,39,116,163 ,
9779,208.00,-608.00,16940.00,0.11,-0.40,10.10,66.00,22.00,32.00,-0.11,0.19,0.02,43,119,164 ,
10479,100.00,-572.00,16744.00,0.10,-0.30,10.10,67.00,21.00,30.00,0.01,0.07,0.02,45,119,164 ,
button pressed
697,156.00,-644.00,16864.00,0.11,-0.33,10.13,65.00,21.00,30.00,0.01,0.13,-0.04,45,175,179 ,
903,-232.00,-1312.00,17544.00,0.17,-0.28,10.07,64.00,42.00,31.00,0.08,0.01,0.02,44,136,171 ,661
928,112.00,-484.00,17032.00,0.04,-0.30,10.13,67.00,13.00,32.00,0.08,0.13,0.14,46,110,171 ,1573
950,64.00,-620.00,16872.00,0.10,-0.36,10.04,66.00,22.00,31.00,0.08,0.19,0.14,42,72,155 ,7
1649,100.00,-536.00,16900.00,0.03,-0.34,10.13,65.00,21.00,32.00,0.01,0.01,-0.04,41,55,144 ,
2349,68.00,-644.00,16892.00,0.10,-0.34,10.11,67.00,19.00,33.00,0.08,-0.17,0.20,42,112,159 ,
3049,132.00,-660.00,16804.00,0.08,-0.31,10.03,65.00,22.00,30.00,0.14,0.01,-0.04,40,118,163 ,
3749,104.00,-628.00,16800.00,0.08,-0.40,10.02,65.00,20.00,33.00,-0.17,0.01,0.20,46,120,163 ,
4449,120.00,-552.00,16888.00,0.09,-0.33,10.12,66.00,20.00,30.00,-0.05,0.19,0.08,44,120,165 ,
5149,132.00,-576.00,16796.00,0.11,-0.36,10.07,66.00,22.00,31.00,0.08,0.13,-0.17,45,120,168 ,
5848,12.00,-556.00,16892.00,0.01,-0.33,9.99,68.00,19.00,31.00,-0.05,-0.05,0.02,46,120,171 ,
6549,92.00,-596.00,16996.00,0.09,-0.33,10.09,64.00,19.00,30.00,0.08,0.01,-0.04,48,119,173 ,
7248,152.00,-620.00,16820.00,0.07,-0.36,10.11,64.00,17.00,32.00,-0.05,-0.05,0.02,51,121,176 ,
7949,140.00,-528.00,16784.00,0.05,-0.31,10.07,64.00,19.00,31.00,-0.05,0.01,-0.04,48,122,180 ,
8648,204.00,-588.00,16832.00,0.11,-0.36,10.08,63.00,21.00,32.00,-0.11,0.25,0.20,52,120,175 ,
9349,116.00,-580.00,16692.00,0.07,-0.35,9.99,67.00,19.00,30.00,-0.05,0.07,0.08,53,120,179 ,
10048,144.00,-492.00,16896.00,0.10,-0.37,10.01,65.00,19.00,31.00,0.01,0.13,0.14,55,118,178 ,
button pressed
696,68.00,-580.00,16800.00,0.06,-0.33,10.06,68.00,20.00,32.00,-0.05,0.01,0.08,51,152,179 ,
737,168.00,-644.00,16328.00,0.20,-0.37,9.61,67.00,15.00,27.00,0.14,-0.54,-0.23,50,132,175 ,1469
770,1088.00,-1296.00,14168.00,-0.32,0.29,8.78,62.00,3.00,33.00,-0.11,-0.72,0.20,42,96,162 ,79
1469,48.00,-476.00,16856.00,0.06,-0.28,10.01,64.00,20.00,30.00,0.14,0.19,0.14,48,71,152 ,
2170,160.00,-560.00,16840.00,0.11,-0.34,10.06,69.00,21.00,31.00,0.20,-0.11,-0.17,48,118,167 ,
2869,36.00,-588.00,16748.00,0.10,-0.37,10.03,69.00,20.00,34.00,0.08,0.13,0.14,49,124,169 ,
3569,172.00,-608.00,16712.00,0.05,-0.34,10.04,66.00,18.00,32.00,0.14,0.01,0.20,45,123,170 ,
4269,76.00,-600.00,16724.00,0.09,-0.38,10.07,65.00,19.00,28.00,-0.17,0.01,-0.04,46,122,172 ,
4969,108.00,-532.00,16808.00,0.09,-0.33,10.08,65.00,21.00,32.00,0.08,0.13,0.20,48,121,171 ,
5669,108.00,-572.00,16892.00,0.06,-0.34,10.10,64.00,17.00,30.00,-0.23,-0.05,0.02,52,122,171 ,
6369,136.00,-552.00,16712.00,0.10,-0.32,9.96,65.00,15.00,30.00,0.14,-0.11,0.14,49,120,167 ,
7068,72.00,-576.00,16928.00,0.08,-0.33,9.99,67.00,18.00,33.00,0.14,0.01,0.14,48,119,168 ,
7769,156.00,-560.00,16896.00,0.06,-0.35,10.10,65.00,16.00,34.00,0.01,-0.11,0.14,51,119,166 ,
8468,60.00,-652.00,16916.00,0.08,-0.33,10.13,66.00,19.00,30.00,-0.17,0.13,0.20,47,118,163 ,
9169,96.00,-568.00,16868.00,0.08,-0.33,10.06,65.00,22.00,30.00,-0.05,0.07,0.02,45,115,164 ,
9868,180.00,-592.00,16840.00,0.04,-0.35,10.00,66.00,18.00,32.00,0.14,-0.11,-0.10,45,117,161 ,
10568,56.00,-612.00,16804.00,0.10,-0.39,10.00,64.00,23.00,29.00,-0.17,-0.05,-0.04,42,118,160 ,
button pressed
695,196.00,-628.00,16840.00,0.17,-0.37,10.11,68.00,21.00,31.00,0.08,-0.05,0.08,56,168,192 ,
737,20.00,-704.00,16972.00,0.10,-0.35,10.04,66.00,15.00,31.00,-0.17,-0.23,0.14,52,136,185 ,2477
865,-224.00,-592.00,20804.00,0.67,-0.75,8.37,66.00,19.00,31.00,0.14,-0.84,-0.04,48,89,162 ,33
1566,96.00,-488.00,16780.00,-0.02,-0.34,10.05,63.00,20.00,32.00,0.08,0.07,0.14,46,83,153 ,
2265,124.00,-628.00,16816.00,0.10,-0.31,10.15,69.00,19.00,30.00,0.14,0.07,-0.04,50,115,169 ,
2965,120.00,-592.00,16840.00,0.05,-0.33,10.06,65.00,16.00,35.00,0.08,0.01,0.08,47,120,172 ,
3665,208.00,-604.00,16780.00,0.12,-0.37,10.12,65.00,19.00,31.00,-0.23,0.07,0.14,48,120,173 ,
4365,204.00,-580.00,16856.00,0.11,-0.30,9.99,68.00,20.00,27.00,0.01,0.01,-0.17,52,124,175 ,
5065,232.00,-520.00,16780.00,0.09,-0.33,10.06,65.00,22.00,31.00,-0.23,0.01,0.02,51,124,177 ,
5765,72.00,-616.00,16816.00,0.10,-0.37,10.13,67.00,16.00,31.00,-0.11,0.13,0.02,49,123,179 ,
6464,100.00,-692.00,16844.00,0.09,-0.35,10.01,67.00,23.00,32.00,-0.05,0.01,0.14,52,125,180 ,
7165,88.00,-576.00,16740.00,0.06,-0.30,10.04,66.00,20.00,30.00,0.08,0.13,-0.10,54,124,180 ,
7864,72.00,-596.00,16880.00,0.08,-0.36,10.08,66.00,19.00,31.00,0.01,-0.05,0.20,55,124,180 ,
8565,180.00,-516.00,16768.00,0.07,-0.32,10.02,65.00,18.00,30.00,-0.05,-0.23,-0.04,55,125,180 ,
9264,76.00,-520.00,16772.00,0.06,-0.31,10.13,67.00,21.00,32.00,0.14,0.07,-0.04,52,124,179 ,
9964,100.00,-592.00,16764.00,0.09,-0.36,10.04,66.00,20.00,33.00,0.14,0.13,0.20,51,123,179 ,
10664,300.00,-536.00,16780.00,0.13,-0.34,10.08,66.00,23.00,30.00,-0.17,0.13,-0.10,53,122,180 ,
button pressed
696,144.00,-592.00,16752.00,0.06,-0.35,10.07,67.00,21.00,28.00,-0.05,0.13,-0.10,50,119,184 ,
1396,168.00,-656.00,16912.00,0.05,-0.39,10.11,66.00,17.00,33.00,-0.05,-0.05,0.08,56,121,184 ,
1573,-20.00,-480.00,18988.00,0.22,-0.29,10.41,67.00,27.00,31.00,0.08,0.92,-0.10,53,120,182 ,1651
2273,52.00,-568.00,16852.00,0.05,-0.31,10.08,68.00,20.00,31.00,0.01,0.01,0.08,57,99,176 ,
2973,184.00,-612.00,16840.00,0.14,-0.39,10.11,64.00,18.00,32.00,-0.11,-0.11,0.02,52,115,179 ,
3673,-16.00,-616.00,16708.00,0.06,-0.33,10.04,68.00,18.00,31.00,0.01,-0.05,0.08,50,119,178 ,
4373,20.00,-552.00,16824.00,0.07,-0.33,10.05,67.00,18.00,31.00,-0.05,0.07,0.08,53,121,176 ,
5073,148.00,-616.00,16972.00,0.09,-0.37,10.15,67.00,20.00,30.00,-0.05,0.07,0.02,49,121,175 ,
5772,88.00,-612.00,16836.00,0.05,-0.33,10.10,64.00,20.00,31.00,0.01,0.25,0.08,53,121,174 ,
6473,136.00,-616.00,16896.00,0.08,-0.37,10.09,66.00,19.00,32.00,0.08,-0.17,0.14,47,122,172 ,
7172,184.00,-560.00,16816.00,0.10,-0.33,10.10,64.00,19.00,30.00,0.08,-0.05,-0.04,51,122,164 ,
7873,108.00,-584.00,16704.00,0.04,-0.33,10.04,66.00,18.00,31.00,0.08,0.13,-0.10,50,123,171 ,
8572,236.00,-600.00,16840.00,0.12,-0.35,10.09,67.00,19.00,32.00,0.01,0.19,0.08,47,124,171 ,
9272,120.00,-532.00,16864.00,0.10,-0.32,10.08,64.00,18.00,30.00,-0.05,-0.11,0.14,52,124,172 ,
9972,92.00,-600.00,16960.00,0.06,-0.39,10.08,67.00,16.00,31.00,0.01,-0.23,0.08,57,124,171 ,
10672,72.00,-564.00,16808.00,0.13,-0.31,10.17,62.00,19.00,33.00,-0.05,-0.05,-0.04,47,123,170 ,
button pressed
697,128.00,-496.00,16988.00,0.09,-0.37,10.04,66.00,20.00,33.00,0.01,0.07,0.02,53,109,161 ,
1132,96.00,-648.00,14700.00,-0.07,-0.34,11.12,68.00,12.00,34.00,0.26,-0.11,0.08,47,119,164 ,834
1149,-412.00,-556.00,17784.00,0.63,-0.42,8.69,64.00,30.00,32.00,-0.05,-0.66,0.26,51,112,156 ,671
1850,244.00,-540.00,16872.00,0.11,-0.30,10.03,65.00,18.00,32.00,0.01,-0.11,-0.04,48,79,157 ,
2549,156.00,-572.00,16820.00,0.13,-0.34,10.07,66.00,19.00,34.00,-0.17,-0.05,0.08,48,112,159 ,
3250,96.00,-572.00,16892.00,0.06,-0.34,10.10,64.00,21.00,31.00,0.01,0.19,0.02,51,118,161 ,
3949,36.00,-572.00,16752.00,0.02,-0.35,10.04,65.00,18.00,32.00,-0.11,-0.05,0.02,51,121,163 ,
4649,76.00,-592.00,16868.00,0.03,-0.35,10.12,65.00,21.00,31.00,-0.05,0.07,0.08,49,120,164 ,
5349,200.00,-496.00,16772.00,0.09,-0.38,10.17,66.00,22.00,33.00,0.01,0.01,0.14,46,115,164 ,
6049,112.00,-640.00,16952.00,0.06,-0.34,10.09,65.00,19.00,32.00,0.08,-0.05,0.02,46,93,144 ,
6749,192.00,-544.00,16684.00,0.11,-0.31,10.02,63.00,22.00,28.00,-0.05,0.07,-0.04,42,117,153 ,
7449,92.00,-624.00,16776.00,0.04,-0.40,10.06,66.00,16.00,32.00,0.08,0.01,0.08,49,161,171 ,
8148,120.00,-564.00,16840.00,0.08,-0.33,10.08,68.00,21.00,29.00,0.14,0.07,-0.04,49,141,169 ,
8849,196.00,-604.00,16948.00,0.10,-0.38,10.12,65.00,22.00,33.00,0.01,0.19,0.02,53,135,168 ,
9548,64.00,-584.00,16736.00,0.04,-0.35,10.00,67.00,19.00,30.00,0.08,-0.05,-0.04,53,132,167 ,
10249,92.00,-580.00,16840.00,0.08,-0.36,10.01,66.00,17.00,34.00,0.14,-0.11,0.14,48,128,165 ,
button pressed
696,164.00,-536.00,16892.00,0.12,-0.36,10.20,67.00,22.00,33.00,0.01,0.01,0.02,51,146,176 ,
758,192.00,-536.00,16772.00,-0.01,-0.33,10.38,64.00,14.00,32.00,0.01,0.25,-0.04,54,131,174 ,2040
1457,40.00,-588.00,16720.00,0.05,-0.37,10.00,67.00,19.00,30.00,-0.05,0.07,0.08,51,95,160 ,
2158,96.00,-580.00,16628.00,0.11,-0.35,10.03,67.00,20.00,30.00,-0.11,0.25,0.14,55,119,168 ,
2857,176.00,-564.00,16812.00,0.07,-0.37,10.04,64.00,20.00,31.00,-0.17,0.07,-0.10,52,123,172 ,
3558,208.00,-580.00,16868.00,0.10,-0.35,10.03,66.00,18.00,32.00,0.01,-0.11,0.14,53,121,171 ,
4257,172.00,-604.00,16832.00,0.11,-0.34,10.05,66.00,18.00,31.00,-0.05,0.01,0.02,53,124,176 ,
4957,184.00,-552.00,16780.00,0.14,-0.33,9.99,66.00,19.00,31.00,-0.05,-0.05,-0.04,57,125,178 ,
5657,160.00,-492.00,16752.00,0.09,-0.39,10.04,65.00,22.00,31.00,0.01,0.19,-0.10,54,124,179 ,
6357,120.00,-592.00,16824.00,0.10,-0.36,10.04,66.00,19.00,32.00,-0.05,-0.05,-0.04,54,124,180 ,
7057,84.00,-632.00,16736.00,0.12,-0.36,10.05,66.00,20.00,29.00,-0.05,0.13,-0.04,63,126,180 ,
7757,164.00,-580.00,16912.00,0.08,-0.34,10.06,67.00,20.00,30.00,0.08,0.13,0.20,61,126,184 ,
8456,112.00,-572.00,16780.00,0.06,-0.36,10.05,65.00,21.00,33.00,0.08,0.07,0.02,59,128,184 ,
9157,88.00,-608.00,16784.00,0.09,-0.37,10.04,65.00,16.00,30.00,-0.17,-0.11,0.02,60,128,184 ,
9856,100.00,-476.00,16844.00,0.05,-0.32,10.09,69.00,18.00,31.00,-0.05,0.07,0.02,64,128,185 ,
10557,232.00,-568.00,16832.00,0.04,-0.32,10.08,65.00,22.00,34.00,-0.17,0.19,0.14,60,128,184 ,
button pressed
696,256.00,-528.00,16872.00,0.05,-0.33,10.00,64.00,15.00,34.00,-0.17,-0.17,0.14,64,182,198 ,
886,216.00,-592.00,16476.00,0.07,-0.36,9.92,67.00,25.00,32.00,-0.05,0.25,0.08,65,146,189 ,1532
1587,132.00,-544.00,16752.00,0.08,-0.32,10.04,65.00,19.00,33.00,0.08,0.01,0.08,61,117,182 ,
2287,104.00,-548.00,16736.00,0.10,-0.35,10.07,65.00,18.00,30.00,-0.23,0.01,0.02,67,128,186 ,
2987,208.00,-560.00,16896.00,0.04,-0.36,10.14,66.00,19.00,31.00,0.08,0.13,0.08,68,130,186 ,
3687,96.00,-636.00,16832.00,0.13,-0.36,10.03,63.00,18.00,33.00,-0.17,-0.17,0.14,68,130,187 ,
4387,176.00,-564.00,16996.00,0.12,-0.31,10.13,66.00,19.00,33.00,0.08,-0.11,0.02,63,128,186 ,
5087,124.00,-612.00,16864.00,0.10,-0.33,10.01,66.00,22.00,31.00,0.14,0.07,0.02,66,129,185 ,
5786,20.00,-524.00,16764.00,0.07,-0.38,10.07,67.00,19.00,32.00,0.08,0.25,0.08,62,128,184 ,
6487,196.00,-536.00,16912.00,0.11,-0.37,10.12,65.00,20.00,32.00,-0.05,0.01,-0.04,64,128,181 ,
7186,136.00,-560.00,16756.00,0.06,-0.35,10.01,67.00,19.00,32.00,0.01,0.07,0.08,66,128,180 ,
7887,100.00,-576.00,16924.00,0.10,-0.29,10.18,67.00,17.00,33.00,-0.11,0.07,0.08,64,128,179 ,
8586,100.00,-600.00,16848.00,0.09,-0.36,10.09,64.00,22.00,30.00,-0.05,0.07,-0.10,65,128,179 ,
9286,124.00,-524.00,16816.00,0.03,-0.33,10.06,65.00,18.00,29.00,-0.11,-0.11,-0.17,67,128,179 ,
9986,100.00,-512.00,16828.00,0.07,-0.36,10.09,66.00,19.00,33.00,-0.11,0.07,0.14,67,128,176 ,
10686,176.00,-516.00,16868.00,0.11,-0.31,10.12,65.00,19.00,34.00,-0.11,0.13,0.08,62,130,179 ,
button pressed
697,132.00,-556.00,17012.00,0.07,-0.36,10.07,66.00,19.00,29.00,-0.05,0.25,0.02,36,143,125 ,
903,72.00,-616.00,16928.00,0.04,-0.32,10.12,67.00,18.00,32.00,0.14,-0.23,0.08,40,125,124 ,2199
1159,644.00,-456.00,10784.00,-0.57,0.26,13.72,60.00,13.00,30.00,0.01,0.50,0.14,40,95,122 ,204
1858,108.00,-556.00,16900.00,0.12,-0.39,10.13,63.00,18.00,32.00,0.01,0.07,0.32,43,91,119 ,
2558,80.00,-696.00,16784.00,0.04,-0.33,10.02,66.00,17.00,33.00,-0.11,-0.05,0.02,41,96,120 ,
3258,172.00,-560.00,16984.00,0.13,-0.37,10.08,66.00,17.00,32.00,0.08,0.01,0.02,41,88,119 ,
3958,80.00,-568.00,16844.00,0.02,-0.37,10.03,68.00,18.00,32.00,-0.05,-0.11,0.08,40,88,118 ,
4658,144.00,-600.00,16772.00,0.09,-0.33,10.12,65.00,16.00,30.00,-0.05,-0.11,-0.10,38,87,119 ,
5358,160.00,-536.00,16916.00,0.07,-0.33,10.04,67.00,21.00,30.00,-0.05,0.13,-0.17,39,85,117 ,
6057,188.00,-572.00,16928.00,0.12,-0.31,10.12,64.00,17.00,31.00,0.01,0.01,0.08,37,86,116 ,
6758,116.00,-540.00,16980.00,0.05,-0.32,10.19,65.00,20.00,33.00,-0.17,0.01,0.02,35,86,114 ,
7457,172.00,-604.00,16896.00,0.04,-0.39,10.11,66.00,18.00,29.00,-0.05,0.01,0.08,36,82,113 ,
8158,164.00,-632.00,16908.00,0.06,-0.39,10.09,67.00,18.00,31.00,0.08,0.01,-0.04,36,82,112 ,
8857,88.00,-556.00,16772.00,0.11,-0.37,10.06,64.00,21.00,31.00,-0.05,-0.05,0.08,37,84,113 ,
9557,104.00,-624.00,16908.00,0.07,-0.39,10.13,64.00,20.00,33.00,-0.05,0.07,-0.17,34,87,114 ,
10257,76.00,-620.00,16900.00,-0.00,-0.33,10.09,63.00,19.00,32.00,0.01,-0.05,0.08,34,86,113 ,
button pressed
696,132.00,-648.00,16832.00,0.11,-0.31,10.01,68.00,18.00,31.00,-0.05,-0.30,0.02,32,106,121 ,
1205,192.00,-540.00,18148.00,-0.08,-0.38,10.04,66.00,9.00,32.00,-0.11,-0.36,0.08,36,103,126 ,1186
1222,568.00,-328.00,15416.00,-0.15,-0.66,11.15,63.00,11.00,29.00,0.08,1.72,0.08,37,99,130 ,518
1367,-60.00,-844.00,16688.00,-0.09,-0.58,7.69,64.00,21.00,30.00,0.14,-0.48,0.02,31,68,120 ,26
2066,228.00,-588.00,16952.00,0.11,-0.33,10.14,63.00,17.00,29.00,-0.11,0.01,-0.04,34,72,118 ,
2767,120.00,-632.00,16896.00,0.04,-0.35,10.12,65.00,16.00,30.00,-0.11,-0.11,0.02,33,102,128 ,
3466,96.00,-568.00,16752.00,0.07,-0.29,10.02,64.00,18.00,33.00,-0.05,0.07,0.02,34,104,130 ,
4167,4.00,-456.00,16708.00,0.11,-0.33,9.99,66.00,20.00,31.00,-0.05,0.01,0.02,37,105,130 ,
4866,172.00,-576.00,16884.00,0.12,-0.32,10.08,67.00,19.00,29.00,-0.05,-0.17,-0.04,33,104,130 ,
5566,116.00,-572.00,16920.00,0.07,-0.36,10.12,67.00,20.00,27.00,-0.11,0.25,-0.17,36,99,130 ,
6266,152.00,-596.00,16824.00,0.09,-0.35,10.10,67.00,21.00,32.00,0.01,0.01,0.08,36,93,129 ,
6966,172.00,-504.00,16828.00,0.06,-0.27,10.00,67.00,16.00,31.00,-0.11,0.01,0.02,33,102,132 ,
7666,196.00,-592.00,16776.00,0.10,-0.27,10.01,64.00,19.00,32.00,-0.17,0.01,-0.04,36,112,132 ,
8366,84.00,-648.00,16864.00,0.08,-0.42,10.13,67.00,19.00,32.00,-0.11,0.01,0.02,32,113,134 ,
9065,228.00,-540.00,17016.00,0.12,-0.30,10.11,65.00,21.00,32.00,-0.05,0.25,0.02,35,112,133 ,
9766,224.00,-640.00,16804.00,0.10,-0.35,10.04,65.00,21.00,31.00,0.01,0.07,-0.04,36,112,131 ,
10465,132.00,-640.00,16804.00,0.06,-0.35,10.09,64.00,21.00,30.00,-0.05,0.13,-0.04,33,112,130 ,
button pressed
695,184.00,-520.00,16624.00,0.14,-0.31,9.97,64.00,21.00,31.00,-0.11,0.07,0.14,54,128,195 ,
1132,-116.00,-656.00,17324.00,0.11,-0.31,10.14,67.00,21.00,34.00,0.08,0.56,0.08,57,125,203 ,2146
1185,148.00,-580.00,16804.00,0.11,-0.31,10.14,67.00,20.00,33.00,0.01,-0.05,0.08,61,128,210 ,1
1215,88.00,-548.00,16664.00,0.08,-0.30,10.00,66.00,21.00,31.00,0.08,-0.05,-0.10,66,79,192 ,553
1251,196.00,-512.00,16892.00,0.11,-0.37,10.14,66.00,21.00,34.00,-0.05,-0.05,0.08,62,68,179 ,351
1952,76.00,-608.00,16900.00,0.11,-0.34,10.06,67.00,19.00,31.00,0.01,-0.05,-0.04,56,59,177 ,
2396,244.00,-624.00,16928.00,0.07,-0.30,10.17,63.00,19.00,30.00,-0.23,0.07,0.08,64,118,201 ,
2699,120.00,-528.00,16908.00,0.08,-0.27,10.08,65.00,18.00,31.00,0.08,0.01,0.02,65,114,203 ,
2767,96.00,-548.00,16832.00,0.05,-0.33,10.04,66.00,19.00,29.00,0.01,0.07,0.02,62,109,201 ,1
2854,116.00,-644.00,16916.00,0.08,-0.37,10.00,66.00,18.00,35.00,-0.05,0.13,0.14,60,82,192 ,
2943,196.00,-600.00,17048.00,0.11,-0.36,10.18,66.00,19.00,32.00,0.08,0.13,0.02,60,77,188 ,
2951,76.00,-644.00,16960.00,0.05,-0.39,10.15,68.00,17.00,32.00,0.14,-0.17,0.02,66,333,260 ,23
3651,200.00,-580.00,16888.00,0.11,-0.36,10.07,64.00,21.00,32.00,0.01,0.13,0.14,59,259,240 ,
4352,172.00,-584.00,16876.00,0.10,-0.36,10.10,66.00,17.00,32.00,-0.17,-0.17,0.02,67,161,220 ,
5051,140.00,-560.00,16896.00,0.08,-0.39,10.07,66.00,21.00,34.00,0.01,0.01,0.20,74,135,216 ,
5752,72.00,-588.00,16892.00,0.01,-0.37,10.07,66.00,22.00,32.00,-0.05,0.07,0.08,78,132,221 ,
6451,68.00,-580.00,16892.00,0.07,-0.38,10.08,65.00,18.00,30.00,0.08,-0.05,0.02,78,130,224 ,
7151,232.00,-548.00,16760.00,0.09,-0.33,9.96,67.00,20.00,32.00,0.01,0.01,0.02,82,132,229 ,
7851,52.00,-596.00,16820.00,0.03,-0.35,9.99,66.00,19.00,30.00,-0.11,0.01,-0.04,83,133,234 ,
8551,232.00,-572.00,16936.00,0.09,-0.33,10.08,63.00,19.00,34.00,-0.17,0.07,0.14,81,133,238 ,
9251,136.00,-604.00,16776.00,0.10,-0.32,10.04,66.00,16.00,30.00,0.08,0.07,-0.04,87,134,238 ,
9951,60.00,-636.00,16776.00,0.10,-0.34,10.09,64.00,23.00,34.00,-0.17,0.07,0.20,86,135,239 ,
10650,208.00,-544.00,16764.00,0.16,-0.34,10.04,66.00,19.00,31.00,0.01,-0.05,0.08,83,133,240 ,
button pressed
695,44.00,-556.00,16768.00,-0.03,-0.34,10.01,66.00,15.00,31.00,0.08,-0.11,-0.04,97,188,275 ,
815,-84.00,-600.00,17044.00,0.08,-0.28,10.07,67.00,28.00,36.00,0.01,0.68,0.20,92,155,261 ,2221
1515,152.00,-580.00,16896.00,0.07,-0.37,10.05,65.00,20.00,32.00,0.08,0.13,0.08,92,127,251 ,
2215,192.00,-572.00,16848.00,0.06,-0.33,10.12,66.00,18.00,31.00,-0.05,0.13,0.08,88,136,249 ,
2915,136.00,-588.00,16820.00,0.08,-0.36,10.10,64.00,18.00,31.00,0.08,-0.11,0.02,90,141,247 ,
3614,252.00,-568.00,16756.00,0.15,-0.34,10.11,66.00,19.00,30.00,-0.05,0.07,-0.04,93,138,244 ,
4315,172.00,-612.00,17000.00,0.07,-0.35,10.13,67.00,19.00,32.00,0.14,0.01,0.20,93,141,239 ,
5014,184.00,-580.00,17008.00,0.08,-0.34,10.16,67.00,18.00,32.00,-0.11,-0.05,0.14,84,140,238 ,
5715,276.00,-620.00,16856.00,0.05,-0.38,10.19,66.00,19.00,30.00,0.01,0.01,-0.04,86,138,235 ,
6414,220.00,-584.00,16836.00,0.14,-0.36,10.05,69.00,21.00,30.00,0.08,0.13,-0.10,83,138,228 ,
7114,92.00,-616.00,16840.00,0.07,-0.36,10.11,64.00,18.00,32.00,-0.05,-0.11,0.08,87,139,227 ,
7814,164.00,-556.00,16828.00,0.12,-0.35,10.05,66.00,22.00,31.00,0.08,0.13,0.20,87,138,224 ,
8514,96.00,-568.00,16828.00,0.10,-0.36,10.11,65.00,18.00,30.00,-0.05,0.01,0.08,82,138,222 ,
9214,64.00,-576.00,16944.00,0.13,-0.31,10.08,63.00,20.00,32.00,-0.29,0.01,0.02,81,137,213 ,
9914,104.00,-592.00,16872.00,0.10,-0.32,10.08,65.00,20.00,36.00,0.01,0.07,0.08,79,137,215 ,
10613,168.00,-644.00,16876.00,0.14,-0.37,10.09,66.00,18.00,32.00,0.01,0.13,-0.04,76,137,212 ,
button pressed
696,156.00,-572.00,16760.00,0.11,-0.33,10.08,65.00,19.00,31.00,-0.05,0.07,0.08,83,194,227 ,
1329,-128.00,-432.00,17968.00,0.11,-0.32,10.59,81.00,25.00,16.00,4.59,10.56,3.86,78,153,214 ,941
2029,36.00,-600.00,16752.00,0.07,-0.40,10.04,65.00,16.00,30.00,-0.05,-0.11,0.14,79,139,222 ,
2729,180.00,-568.00,16696.00,0.05,-0.32,10.00,65.00,18.00,32.00,-0.11,-0.11,0.02,81,136,204 ,
3429,68.00,-404.00,16908.00,0.08,-0.30,10.07,67.00,22.00,30.00,0.14,0.01,0.02,81,137,203 ,
4129,192.00,-616.00,16776.00,0.04,-0.36,10.04,63.00,19.00,31.00,0.08,-0.05,0.02,80,137,200 ,
4829,144.00,-504.00,16760.00,0.10,-0.33,10.09,64.00,20.00,31.00,-0.05,0.07,0.02,75,136,200 ,
5528,132.00,-656.00,16920.00,0.06,-0.37,10.09,65.00,18.00,29.00,0.08,-0.05,0.02,76,136,198 ,
6229,84.00,-620.00,16836.00,0.09,-0.38,10.06,67.00,21.00,31.00,0.01,0.01,-0.04,76,137,198 ,
6928,92.00,-544.00,16816.00,0.06,-0.35,10.01,66.00,18.00,34.00,0.08,0.07,0.26,79,137,196 ,
7629,80.00,-636.00,16828.00,0.09,-0.35,10.10,64.00,18.00,31.00,0.01,0.01,0.02,73,136,194 ,
8328,144.00,-608.00,16844.00,0.05,-0.32,10.06,66.00,20.00,32.00,-0.11,0.19,0.02,79,138,195 ,
9028,128.00,-576.00,16752.00,0.13,-0.34,10.01,66.00,16.00,32.00,0.01,0.01,0.14,78,138,194 ,
9728,52.00,-516.00,16916.00,0.01,-0.37,10.11,63.00,19.00,29.00,-0.17,0.01,-0.04,76,139,193 ,
10428,88.00,-536.00,16788.00,0.06,-0.32,10.09,62.00,19.00,31.00,0.08,0.01,-0.10,77,139,189 ,
button pressed
696,140.00,-592.00,16832.00,0.07,-0.37,10.09,63.00,17.00,31.00,-0.11,-0.17,0.14,84,224,225 ,
1396,220.00,-548.00,16844.00,0.09,-0.33,10.10,63.00,20.00,29.00,-0.17,0.07,-0.17,86,172,210 ,
2096,180.00,-568.00,16808.00,0.02,-0.34,10.05,63.00,18.00,33.00,-0.05,0.07,-0.04,86,245,229 ,
2111,448.00,-776.00,13664.00,-0.15,-0.39,11.43,78.00,-14.00,14.00,-1.51,9.46,3.74,79,249,235 ,466
2811,52.00,-544.00,16848.00,0.09,-0.32,10.01,63.00,20.00,29.00,-0.05,0.07,0.02,84,201,225 ,
3512,136.00,-660.00,16664.00,0.06,-0.32,10.08,63.00,19.00,31.00,-0.11,0.19,0.20,85,264,237 ,
4211,132.00,-520.00,16836.00,0.04,-0.37,10.10,66.00,22.00,30.00,0.08,0.13,-0.10,86,246,233 ,
4912,44.00,-588.00,16800.00,0.03,-0.30,10.01,67.00,17.00,32.00,0.01,-0.11,0.14,83,237,230 ,
5611,80.00,-604.00,16844.00,0.10,-0.35,10.07,68.00,19.00,32.00,0.20,0.01,-0.04,81,230,229 ,
6311,84.00,-516.00,16852.00,0.05,-0.33,10.05,63.00,21.00,31.00,-0.23,0.01,0.08,85,243,235 ,
7011,216.00,-588.00,16816.00,0.11,-0.43,10.06,64.00,20.00,30.00,-0.17,0.01,0.08,87,240,235 ,
7711,132.00,-584.00,16788.00,0.08,-0.33,9.99,64.00,19.00,34.00,0.01,-0.05,0.02,88,239,236 ,
8411,112.00,-540.00,16840.00,0.04,-0.29,10.05,65.00,20.00,29.00,0.08,0.13,-0.04,87,225,232 ,
9111,136.00,-616.00,16976.00,0.11,-0.32,10.07,66.00,19.00,29.00,-0.05,0.07,0.02,88,229,232 ,
9810,140.00,-524.00,16860.00,0.05,-0.30,10.06,70.00,20.00,30.00,0.01,0.01,0.02,88,232,231 ,
10511,188.00,-628.00,16688.00,0.16,-0.33,10.00,63.00,19.00,29.00,-0.05,0.01,-0.10,84,231,229 ,
button pressed
696,124.00,-592.00,16852.00,0.09,-0.34,10.12,63.00,16.00,32.00,-0.05,0.01,0.08,93,215,226 ,
1200,-28.00,-424.00,17624.00,-0.00,-0.41,10.95,67.00,17.00,30.00,-0.17,0.07,0.02,87,218,229 ,1003
1221,-200.00,-560.00,12032.00,0.02,-0.43,11.39,66.00,-8.00,34.00,-0.05,-0.72,0.02,85,254,237 ,447
1922,116.00,-608.00,16884.00,0.05,-0.31,10.11,67.00,20.00,29.00,0.08,0.13,-0.04,81,250,233 ,
2621,196.00,-512.00,16884.00,0.09,-0.33,10.09,64.00,23.00,32.00,-0.11,0.13,0.08,91,231,233 ,
3321,164.00,-600.00,16808.00,0.09,-0.33,10.07,65.00,19.00,33.00,-0.05,0.01,0.08,89,230,234 ,
4021,156.00,-572.00,16776.00,0.12,-0.40,10.05,65.00,20.00,35.00,-0.05,0.13,0.14,86,240,238 ,
4721,128.00,-556.00,16820.00,0.08,-0.33,10.10,64.00,21.00,33.00,-0.05,0.07,0.08,89,242,239 ,
5421,88.00,-628.00,16796.00,0.04,-0.34,10.05,66.00,18.00,29.00,-0.17,0.01,-0.23,88,239,240 ,
6121,160.00,-492.00,16736.00,0.07,-0.36,10.07,67.00,21.00,33.00,-0.17,0.01,0.02,88,238,238 ,
6820,144.00,-572.00,16760.00,0.09,-0.35,9.98,65.00,22.00,32.00,-0.17,0.01,0.08,88,231,239 ,
7521,48.00,-596.00,16972.00,0.09,-0.32,10.10,66.00,19.00,28.00,-0.11,0.07,-0.04,95,228,238 ,
8220,176.00,-648.00,16868.00,0.14,-0.38,10.05,66.00,19.00,29.00,-0.05,-0.05,-0.17,96,240,243 ,
8921,140.00,-572.00,16952.00,0.08,-0.34,10.14,65.00,20.00,31.00,0.08,0.19,0.02,94,229,241 ,
9620,164.00,-476.00,16772.00,0.10,-0.24,10.13,66.00,17.00,31.00,-0.11,-0.05,0.08,89,235,243 ,
10320,156.00,-604.00,16968.00,0.07,-0.30,10.04,66.00,19.00,29.00,-0.05,0.01,0.08,92,214,237 ,
button pressed
696,192.00,-596.00,16744.00,0.07,-0.34,10.06,63.00,16.00,32.00,-0.23,-0.17,0.14,93,174,213 ,
922,-20.00,-836.00,14228.00,0.67,-0.36,8.38,70.00,26.00,34.00,-0.05,-0.72,0.20,90,154,210 ,760
945,-552.00,-340.00,10712.00,0.27,-0.40,11.06,60.00,-2.00,30.00,0.08,1.11,-0.04,83,131,203 ,491
1645,148.00,-548.00,16848.00,0.01,-0.38,10.12,65.00,21.00,30.00,0.14,0.13,-0.17,90,109,186 ,
2345,144.00,-576.00,16880.00,0.08,-0.34,10.07,65.00,20.00,32.00,0.01,-0.05,0.26,90,136,200 ,
3045,196.00,-552.00,16980.00,0.12,-0.35,10.14,64.00,21.00,34.00,-0.05,0.13,0.14,86,143,197 ,
3745,192.00,-560.00,16784.00,0.11,-0.35,10.08,63.00,18.00,29.00,-0.05,-0.11,-0.04,87,144,196 ,
4444,156.00,-524.00,16780.00,0.11,-0.31,10.10,64.00,20.00,32.00,0.01,0.01,0.08,85,144,195 ,
5145,144.00,-576.00,16836.00,0.06,-0.37,10.02,66.00,19.00,32.00,-0.11,0.01,-0.04,87,145,194 ,
5844,144.00,-544.00,16860.00,0.11,-0.28,10.08,65.00,20.00,31.00,0.01,0.07,-0.04,94,147,191 ,
6545,136.00,-584.00,16980.00,0.05,-0.34,10.10,67.00,17.00,32.00,0.01,-0.05,0.02,87,146,194 ,
7244,168.00,-532.00,16764.00,0.06,-0.35,10.08,66.00,19.00,31.00,0.01,0.07,0.08,87,146,194 ,
7945,212.00,-504.00,16824.00,0.12,-0.35,10.15,64.00,17.00,32.00,-0.11,0.01,0.14,87,172,202 ,
8644,132.00,-556.00,17004.00,0.08,-0.34,10.11,66.00,16.00,28.00,0.01,-0.17,-0.04,88,190,209 ,
9344,172.00,-668.00,16836.00,0.10,-0.39,10.10,64.00,18.00,31.00,-0.23,-0.17,0.14,88,191,210 ,
10044,144.00,-592.00,16876.00,0.13,-0.34,10.09,66.00,16.00,30.00,0.14,-0.05,0.02,94,190,211 ,
button pressed
695,284.00,-612.00,16808.00,0.11,-0.35,10.08,67.00,23.00,30.00,0.14,0.19,-0.04,87,188,201 ,
1135,312.00,-620.00,15952.00,0.06,-0.30,9.66,64.00,18.00,29.00,0.01,0.86,-0.04,87,194,205 ,1303
1187,-568.00,-1540.00,13740.00,0.45,-0.07,5.61,62.00,26.00,30.00,0.08,-0.72,-0.10,84,188,199 ,84
1887,244.00,-568.00,16736.00,0.11,-0.36,10.09,65.00,20.00,34.00,-0.05,0.01,0.20,91,140,185 ,
2586,136.00,-592.00,16880.00,0.07,-0.35,10.10,64.00,17.00,30.00,-0.17,-0.05,-0.04,90,139,187 ,
3287,136.00,-544.00,16788.00,0.13,-0.38,10.10,66.00,16.00,33.00,-0.05,-0.05,0.08,90,143,185 ,
3987,288.00,-572.00,16780.00,0.09,-0.34,9.98,63.00,20.00,31.00,-0.11,-0.05,-0.04,85,144,186 ,
4687,160.00,-532.00,16844.00,0.10,-0.31,10.01,69.00,19.00,30.00,0.20,0.07,0.08,89,142,184 ,
5387,160.00,-644.00,16696.00,0.07,-0.33,10.05,66.00,17.00,31.00,0.14,-0.17,0.08,89,141,185 ,
6086,124.00,-672.00,16744.00,0.08,-0.38,10.14,65.00,18.00,31.00,0.14,0.01,0.32,89,142,186 ,
6787,156.00,-568.00,16912.00,0.12,-0.33,10.05,64.00,19.00,33.00,-0.11,0.13,-0.04,87,142,189 ,
7486,144.00,-468.00,16912.00,0.08,-0.37,10.09,65.00,19.00,32.00,-0.11,0.07,-0.04,90,144,187 ,
8187,136.00,-592.00,16888.00,0.08,-0.33,10.12,66.00,16.00,31.00,0.01,-0.23,-0.04,87,145,183 ,
8886,128.00,-600.00,16948.00,0.14,-0.33,10.15,66.00,19.00,30.00,0.20,0.19,0.02,89,144,184 ,
9586,168.00,-620.00,16936.00,0.11,-0.35,10.07,67.00,15.00,33.00,0.08,0.01,-0.04,87,146,183 ,
10286,144.00,-572.00,16936.00,0.08,-0.36,10.15,65.00,22.00,32.00,-0.11,-0.05,0.08,88,146,185 ,
button pressed
695,124.00,-608.00,16852.00,0.10,-0.42,10.03,68.00,21.00,31.00,0.01,-0.11,-0.10,95,167,195 ,
796,-124.00,-896.00,15080.00,-0.07,-0.54,9.02,1.00,0.00,22.00,-4.01,-7.06,-1.32,91,150,192 ,666
809,360.00,-556.00,16004.00,-0.04,-0.28,9.88,64.00,35.00,30.00,-0.11,0.74,-0.10,79,104,175 ,
1509,140.00,-536.00,16868.00,0.11,-0.32,10.03,65.00,21.00,30.00,0.01,0.13,-0.17,91,107,173 ,
2209,172.00,-588.00,16728.00,0.04,-0.31,10.00,65.00,15.00,28.00,-0.11,-0.11,-0.04,86,136,182 ,
2909,132.00,-560.00,16968.00,0.14,-0.33,10.05,66.00,21.00,31.00,0.08,0.13,0.08,88,142,184 ,
3609,164.00,-460.00,16824.00,0.07,-0.34,10.10,65.00,18.00,31.00,-0.23,-0.05,0.14,90,143,186 ,
4309,52.00,-584.00,16936.00,0.07,-0.33,10.19,67.00,19.00,30.00,-0.05,-0.05,-0.04,89,144,186 ,
5008,240.00,-432.00,16868.00,0.12,-0.30,10.12,65.00,17.00,28.00,0.01,-0.11,0.02,92,144,185 ,
5709,96.00,-532.00,16796.00,0.07,-0.34,10.07,68.00,18.00,29.00,0.01,-0.17,-0.10,87,143,185 ,
6408,156.00,-652.00,16544.00,0.07,-0.39,10.02,66.00,18.00,33.00,0.01,0.25,0.20,91,144,186 ,
7109,144.00,-620.00,16916.00,0.06,-0.37,10.13,65.00,18.00,30.00,-0.05,-0.17,-0.04,89,144,185 ,
7808,152.00,-644.00,16768.00,0.07,-0.33,10.02,65.00,19.00,33.00,0.08,-0.11,0.14,91,143,183 ,
8508,140.00,-544.00,16784.00,0.11,-0.35,10.05,66.00,19.00,31.00,-0.11,0.19,-0.04,88,145,184 ,
9208,164.00,-632.00,16868.00,0.06,-0.37,10.06,65.00,21.00,31.00,0.14,0.13,-0.10,88,140,183 ,
9908,64.00,-508.00,16664.00,0.10,-0.28,10.05,66.00,15.00,30.00,-0.05,-0.17,-0.04,91,142,184 ,
10608,84.00,-600.00,16752.00,0.11,-0.31,10.07,63.00,19.00,31.00,-0.11,-0.05,0.08,93,142,186 ,
button pressed
697,216.00,-536.00,16880.00,0.09,-0.36,10.00,65.00,20.00,30.00,0.01,0.01,0.08,97,183,195 ,
1396,208.00,-556.00,16708.00,0.07,-0.33,10.07,68.00,19.00,31.00,-0.17,0.01,0.14,95,161,190 ,
1558,-48.00,-800.00,16932.00,0.19,-0.39,9.39,69.00,-1.00,29.00,0.08,0.19,0.02,95,153,188 ,1192
1578,-48.00,-764.00,15712.00,0.38,-0.39,9.09,66.00,21.00,35.00,-0.23,-0.66,0.20,96,131,181 ,746
2279,52.00,-540.00,16764.00,0.08,-0.34,10.06,66.00,19.00,30.00,-0.05,0.01,-0.04,93,114,170 ,
2979,136.00,-652.00,16876.00,0.05,-0.39,10.08,68.00,17.00,32.00,0.14,0.01,0.08,97,143,183 ,
3679,168.00,-568.00,16888.00,0.09,-0.31,10.11,67.00,18.00,35.00,0.08,-0.05,0.26,96,149,186 ,
4379,56.00,-544.00,16920.00,0.07,-0.31,10.07,64.00,22.00,29.00,0.01,0.19,-0.10,99,150,186 ,
5078,100.00,-552.00,16856.00,0.09,-0.35,10.11,65.00,16.00,31.00,-0.05,-0.11,0.14,99,150,186 ,
5779,180.00,-576.00,17008.00,0.06,-0.29,10.02,66.00,25.00,30.00,0.01,0.38,0.14,96,149,186 ,
6478,132.00,-600.00,16900.00,0.10,-0.39,10.06,64.00,18.00,34.00,0.08,0.07,0.14,93,147,185 ,
7179,68.00,-508.00,16828.00,0.11,-0.35,10.10,65.00,22.00,31.00,-0.11,0.19,-0.04,98,150,186 ,
7878,96.00,-532.00,16800.00,0.06,-0.39,10.05,66.00,17.00,30.00,0.08,-0.17,0.08,99,147,186 ,
8578,124.00,-468.00,16840.00,0.10,-0.35,10.03,67.00,20.00,35.00,0.01,-0.05,0.20,95,148,186 ,
9278,56.00,-604.00,16876.00,0.05,-0.39,10.04,66.00,20.00,29.00,0.08,0.07,0.14,94,148,185 ,
9978,184.00,-544.00,16716.00,0.06,-0.35,10.05,70.00,18.00,36.00,0.01,-0.05,0.14,94,147,184 ,
10678,-40.00,-640.00,16808.00,-0.00,-0.38,10.03,67.00,20.00,32.00,0.08,0.19,0.02,95,149,180 ,
button pressed
697,132.00,-568.00,16820.00,0.04,-0.35,10.14,67.00,19.00,32.00,0.01,-0.05,-0.04,96,172,190 ,
919,-404.00,-280.00,16124.00,0.37,-0.37,9.54,60.00,41.00,31.00,0.14,0.25,0.14,97,158,188 ,654
1618,180.00,-576.00,16848.00,0.08,-0.31,10.14,65.00,21.00,32.00,0.08,0.07,-0.04,81,116,181 ,
2319,128.00,-524.00,16816.00,0.08,-0.33,10.09,64.00,20.00,32.00,-0.05,0.19,0.08,99,147,186 ,
3018,232.00,-596.00,16888.00,0.07,-0.37,10.09,66.00,20.00,31.00,-0.05,0.19,0.14,97,151,186 ,
3719,108.00,-624.00,16668.00,0.12,-0.37,10.05,64.00,19.00,30.00,-0.17,0.07,-0.04,103,151,188 ,
4419,92.00,-476.00,16924.00,0.07,-0.36,10.09,68.00,17.00,33.00,0.01,-0.11,0.20,100,150,188 ,
5118,24.00,-588.00,16840.00,0.09,-0.35,10.05,68.00,21.00,32.00,0.01,0.13,0.08,101,150,189 ,
5819,192.00,-700.00,16648.00,0.08,-0.39,10.06,66.00,19.00,32.00,-0.05,-0.05,-0.04,102,150,188 ,
6518,96.00,-620.00,16888.00,0.05,-0.35,10.19,66.00,19.00,30.00,0.08,0.07,-0.10,100,150,189 ,
7219,136.00,-648.00,16780.00,0.08,-0.36,10.13,66.00,20.00,31.00,0.14,0.01,-0.04,100,150,189 ,
7918,40.00,-620.00,16856.00,0.06,-0.43,10.10,65.00,22.00,29.00,-0.05,0.07,0.08,99,150,189 ,
8618,160.00,-588.00,16980.00,0.10,-0.35,10.16,67.00,19.00,30.00,0.01,-0.05,0.08,102,152,189 ,
9318,248.00,-560.00,16892.00,0.12,-0.35,10.06,67.00,19.00,33.00,0.01,0.01,0.14,98,153,190 ,
10018,132.00,-552.00,16808.00,0.08,-0.25,9.99,66.00,22.00,31.00,0.01,-0.05,0.02,101,153,193 ,
button pressed
696,72.00,-612.00,16924.00,0.11,-0.33,10.00,67.00,18.00,32.00,-0.05,-0.05,0.02,104,172,197 ,
1002,228.00,-696.00,16468.00,0.37,-0.34,9.15,153.00,89.00,56.00,-2.42,0.13,-1.08,104,158,194 ,724
1702,120.00,-572.00,16600.00,0.08,-0.36,10.04,65.00,19.00,32.00,0.01,0.01,0.02,97,136,185 ,
2402,152.00,-608.00,16908.00,0.07,-0.36,10.12,65.00,21.00,33.00,0.01,0.07,0.02,103,152,190 ,
3102,196.00,-564.00,16840.00,0.04,-0.35,9.99,67.00,21.00,30.00,0.08,0.19,-0.04,102,154,191 ,
3802,192.00,-656.00,16792.00,0.10,-0.38,10.04,65.00,21.00,33.00,0.01,0.13,0.08,102,153,190 ,
4501,100.00,-576.00,16712.00,0.10,-0.38,10.08,66.00,18.00,31.00,-0.11,0.07,0.14,102,149,189 ,
5202,140.00,-536.00,16892.00,0.07,-0.34,9.97,63.00,19.00,31.00,-0.11,0.01,0.02,103,151,188 ,
5901,44.00,-524.00,16756.00,0.11,-0.33,10.03,69.00,18.00,32.00,0.08,0.07,0.02,102,152,189 ,
6602,96.00,-600.00,17024.00,0.08,-0.31,10.05,66.00,19.00,34.00,-0.11,-0.05,0.26,103,152,190 ,
7301,36.00,-612.00,16832.00,0.07,-0.38,10.07,68.00,18.00,32.00,0.08,0.01,0.02,105,154,189 ,
8001,136.00,-600.00,16848.00,0.06,-0.34,10.06,64.00,22.00,30.00,0.01,0.31,0.08,104,152,186 ,
8701,76.00,-576.00,16784.00,0.03,-0.31,10.10,66.00,22.00,31.00,-0.05,0.07,0.08,103,152,188 ,
9401,88.00,-592.00,16792.00,0.09,-0.37,10.09,64.00,22.00,30.00,0.08,0.07,-0.04,101,151,187 ,
10101,120.00,-480.00,16932.00,0.12,-0.32,10.06,67.00,19.00,30.00,0.01,-0.11,0.02,100,150,186 ,
button pressed
696,124.00,-604.00,16896.00,0.12,-0.40,10.07,66.00,21.00,33.00,0.20,-0.05,0.20,104,175,194 ,
1244,-56.00,-600.00,17216.00,-0.03,-0.36,10.30,68.00,37.00,34.00,0.20,0.74,0.08,100,158,190 ,1735
1945,72.00,-568.00,16820.00,0.09,-0.36,10.02,67.00,17.00,27.00,0.20,-0.17,-0.17,105,189,198 ,
2644,96.00,-528.00,16728.00,0.06,-0.33,10.09,67.00,20.00,32.00,0.14,0.13,0.14,103,144,187 ,
3345,136.00,-576.00,16864.00,0.08,-0.37,10.08,64.00,18.00,34.00,-0.11,0.07,0.20,107,151,189 ,
4044,60.00,-552.00,16856.00,0.10,-0.33,10.04,66.00,18.00,32.00,-0.05,-0.05,0.02,104,153,189 ,
4744,56.00,-668.00,16740.00,0.01,-0.38,10.08,68.00,20.00,31.00,0.14,0.07,0.02,106,154,190 ,
5444,60.00,-636.00,16804.00,0.08,-0.39,10.05,62.00,18.00,33.00,0.01,0.13,0.14,107,153,188 ,
6144,152.00,-604.00,16888.00,0.10,-0.37,10.14,64.00,19.00,31.00,-0.17,-0.11,-0.10,102,153,189 ,
6845,100.00,-552.00,16816.00,0.13,-0.34,10.10,64.00,18.00,33.00,0.01,-0.11,0.14,105,154,188 ,
7544,60.00,-576.00,16864.00,0.06,-0.31,10.00,65.00,19.00,31.00,0.08,0.13,0.14,107,154,188 ,
8244,68.00,-516.00,16848.00,0.07,-0.33,10.11,66.00,19.00,36.00,-0.05,-0.23,-0.04,104,152,187 ,
8944,60.00,-584.00,16884.00,0.07,-0.36,10.08,67.00,20.00,32.00,0.01,0.01,0.08,105,153,186 ,
9644,208.00,-580.00,16816.00,0.09,-0.34,10.04,66.00,16.00,32.00,-0.05,-0.11,0.08,107,152,183 ,
10344,252.00,-576.00,16764.00,0.08,-0.33,10.12,63.00,20.00,32.00,-0.11,0.25,0.02,103,152,184 ,
button pressed
696,144.00,-556.00,16916.00,0.10,-0.35,10.05,66.00,19.00,32.00,0.01,0.13,-0.04,100,173,188 ,
1396,208.00,-668.00,17008.00,0.15,-0.43,10.13,65.00,20.00,33.00,-0.05,0.13,-0.04,102,158,184 ,
1412,-336.00,-696.00,16768.00,0.46,-0.33,8.96,67.00,25.00,36.00,0.26,-0.36,0.08,103,154,183 ,686
1423,-636.00,-188.00,15556.00,0.37,-0.44,9.97,69.00,23.00,34.00,0.01,0.07,0.14,117,120,191 ,14
2124,176.00,-556.00,16672.00,0.09,-0.36,9.98,65.00,19.00,33.00,-0.11,-0.05,-0.10,98,128,171 ,
2824,84.00,-540.00,16756.00,0.10,-0.36,10.09,66.00,20.00,31.00,-0.05,0.01,0.08,98,142,175 ,
3523,36.00,-632.00,16764.00,0.10,-0.35,10.06,65.00,19.00,29.00,-0.05,-0.05,0.02,101,149,177 ,
4224,132.00,-608.00,16792.00,0.07,-0.33,10.07,65.00,17.00,30.00,-0.05,-0.05,-0.10,102,151,178 ,
4923,84.00,-616.00,16832.00,0.07,-0.41,10.04,65.00,16.00,33.00,-0.05,0.01,0.08,102,152,178 ,
5624,136.00,-608.00,16844.00,0.05,-0.37,10.13,65.00,19.00,32.00,0.14,0.07,0.08,104,151,176 ,
6323,196.00,-600.00,16840.00,0.07,-0.34,10.10,64.00,20.00,28.00,-0.11,0.13,-0.17,101,152,176 ,
7023,208.00,-624.00,16664.00,0.12,-0.37,10.04,64.00,20.00,31.00,-0.11,0.07,0.02,101,151,178 ,
7723,156.00,-556.00,16796.00,0.15,-0.37,10.11,69.00,19.00,33.00,0.01,0.31,0.26,103,152,181 ,
8423,156.00,-632.00,16820.00,0.01,-0.35,10.05,67.00,20.00,33.00,0.08,0.13,0.14,98,150,178 ,
9123,188.00,-520.00,16852.00,0.11,-0.33,10.18,66.00,19.00,32.00,0.08,-0.23,-0.10,102,152,178 ,
9823,108.00,-620.00,16808.00,0.09,-0.35,10.06,65.00,18.00,35.00,0.01,-0.11,0.02,102,151,177 ,
10522,108.00,-624.00,16848.00,0.05,-0.35,10.13,66.00,20.00,30.00,-0.11,0.13,0.02,98,150,177 ,
button pressed
697,144.00,-588.00,16796.00,0.16,-0.37,10.02,63.00,21.00,30.00,-0.17,0.19,0.02,108,169,194 ,
1107,460.00,-1160.00,16256.00,0.42,-0.14,10.57,58.00,5.00,34.00,4.65,8.67,1.30,107,154,189 ,459
1807,128.00,-608.00,16784.00,0.07,-0.33,10.02,65.00,19.00,34.00,0.01,-0.05,0.14,110,142,213 ,
2507,136.00,-672.00,16836.00,0.06,-0.37,9.99,64.00,17.00,30.00,0.01,-0.05,0.02,106,151,189 ,
3206,232.00,-616.00,16888.00,0.05,-0.37,10.11,64.00,20.00,30.00,-0.05,0.07,-0.04,110,154,187 ,
3907,132.00,-484.00,16784.00,0.14,-0.35,10.05,65.00,20.00,31.00,0.08,0.01,0.08,105,153,187 ,
4606,92.00,-656.00,16784.00,0.07,-0.36,10.15,65.00,15.00,32.00,0.01,-0.11,0.08,105,154,187 ,
5307,184.00,-568.00,16960.00,0.12,-0.33,10.18,68.00,17.00,35.00,0.14,-0.11,0.14,106,154,187 ,
6006,-16.00,-592.00,16956.00,0.04,-0.35,10.11,66.00,18.00,28.00,0.08,0.01,-0.04,103,153,185 ,
6707,112.00,-608.00,16948.00,0.11,-0.36,10.10,68.00,20.00,30.00,0.08,0.01,0.02,104,154,185 ,
7407,116.00,-492.00,16868.00,0.07,-0.33,10.12,65.00,19.00,32.00,0.20,0.01,0.08,105,154,184 ,
8106,140.00,-576.00,16872.00,0.10,-0.33,10.10,64.00,19.00,30.00,-0.05,-0.05,-0.04,106,154,182 ,
8807,116.00,-620.00,16840.00,0.11,-0.34,10.00,66.00,19.00,28.00,0.08,-0.05,-0.10,104,153,183 ,
9506,136.00,-612.00,16844.00,0.07,-0.38,10.08,65.00,20.00,33.00,0.01,-0.11,0.02,102,152,182 ,
10207,84.00,-596.00,16792.00,0.06,-0.37,10.07,63.00,20.00,31.00,-0.17,0.13,0.08,107,154,181 ,
button pressed
695,80.00,-616.00,16768.00,0.06,-0.35,10.00,63.00,17.00,32.00,-0.05,-0.11,0.08,116,175,229 ,
1395,236.00,-540.00,16844.00,0.13,-0.36,10.05,66.00,18.00,32.00,0.08,0.01,0.08,118,160,224 ,
1700,-244.00,1316.00,-2520.00,1.41,-3.11,19.60,240.00,109.00,50.00,-5.05,0.50,-1.08,121,157,219 ,164
1715,116.00,-532.00,17212.00,0.06,-0.34,9.64,67.00,29.00,30.00,0.01,0.62,0.02,110,132,214 ,56
2415,96.00,-496.00,16812.00,0.03,-0.33,10.12,67.00,21.00,32.00,0.14,0.07,0.02,112,136,207 ,
3115,68.00,-676.00,16772.00,0.07,-0.35,10.03,67.00,20.00,33.00,0.08,0.07,-0.04,115,149,212 ,
3815,152.00,-560.00,16704.00,0.07,-0.34,10.03,63.00,21.00,32.00,-0.05,0.13,0.02,111,151,212 ,
4514,160.00,-572.00,16848.00,0.10,-0.34,10.08,66.00,18.00,30.00,0.01,0.01,0.08,117,156,214 ,
5215,152.00,-592.00,16800.00,0.09,-0.29,10.05,64.00,16.00,32.00,-0.05,0.01,0.08,116,155,214 ,
5914,88.00,-628.00,16980.00,0.06,-0.35,10.16,67.00,20.00,30.00,-0.05,0.07,-0.04,115,155,214 ,
6615,132.00,-600.00,16916.00,0.08,-0.38,10.08,67.00,16.00,29.00,0.01,-0.11,0.08,119,155,213 ,
7314,164.00,-612.00,16888.00,0.11,-0.38,10.14,63.00,19.00,32.00,-0.17,-0.05,0.26,117,154,212 ,
8014,164.00,-532.00,16760.00,0.11,-0.35,10.13,63.00,19.00,33.00,-0.05,0.07,0.08,112,154,213 ,
8714,172.00,-496.00,16884.00,0.13,-0.33,10.10,67.00,20.00,33.00,0.08,-0.05,0.08,113,153,213 ,
9414,148.00,-612.00,16912.00,0.05,-0.39,10.10,64.00,22.00,35.00,-0.05,0.13,0.26,112,154,213 ,
10115,88.00,-516.00,16952.00,0.09,-0.31,10.10,66.00,19.00,31.00,0.01,-0.05,0.14,109,153,211 ,
button pressed
696,32.00,-560.00,16864.00,0.02,-0.33,10.05,64.00,19.00,31.00,0.01,-0.05,-0.23,121,175,228 ,
1140,256.00,-616.00,16532.00,0.15,-0.37,9.89,65.00,21.00,33.00,-0.11,-0.17,0.14,120,162,224 ,1670
1840,116.00,-584.00,16928.00,0.06,-0.37,10.12,63.00,17.00,32.00,-0.23,-0.05,-0.04,120,159,223 ,
2540,172.00,-592.00,16844.00,0.04,-0.31,10.07,66.00,18.00,31.00,0.14,-0.05,0.02,119,156,221 ,
3240,200.00,-600.00,16768.00,0.11,-0.38,9.99,65.00,19.00,31.00,-0.05,0.01,0.08,116,156,221 ,
3939,136.00,-572.00,16980.00,0.07,-0.34,10.10,66.00,21.00,29.00,0.14,0.01,0.02,117,157,221 ,
4640,128.00,-508.00,16728.00,0.08,-0.30,10.01,66.00,19.00,30.00,0.01,-0.05,-0.10,121,158,217 ,
5340,172.00,-512.00,16852.00,0.08,-0.33,10.08,66.00,20.00,32.00,0.20,0.01,0.14,118,166,221 ,
6040,152.00,-516.00,16860.00,0.11,-0.34,10.05,68.00,19.00,31.00,0.08,0.01,-0.17,117,150,216 ,
6740,104.00,-508.00,16760.00,0.09,-0.31,10.11,65.00,19.00,30.00,-0.17,0.13,0.08,122,155,216 ,
7439,172.00,-572.00,16716.00,0.14,-0.33,10.05,65.00,20.00,30.00,-0.05,0.13,-0.04,116,156,213 ,
8140,248.00,-624.00,16668.00,0.09,-0.36,10.01,67.00,18.00,30.00,-0.05,0.01,-0.04,119,155,212 ,
8839,124.00,-568.00,16972.00,0.06,-0.38,10.13,66.00,16.00,30.00,0.01,-0.05,-0.17,115,152,211 ,
9540,128.00,-640.00,16712.00,0.12,-0.37,10.00,67.00,21.00,31.00,-0.05,0.31,0.14,118,155,212 ,
10239,120.00,-612.00,16876.00,0.12,-0.38,10.06,68.00,19.00,31.00,0.01,0.01,-0.04,117,156,214 ,
button pressed
696,68.00,-560.00,16908.00,0.03,-0.35,10.02,67.00,18.00,31.00,0.26,-0.11,0.08,129,178,235 ,
1191,224.00,-724.00,16064.00,0.45,-0.37,9.22,69.00,49.00,46.00,-1.02,-2.43,-0.17,120,164,228 ,743
1891,112.00,-596.00,16864.00,0.08,-0.33,10.03,66.00,17.00,29.00,0.14,0.07,-0.04,113,140,210 ,
2591,116.00,-572.00,16940.00,0.08,-0.31,10.15,67.00,18.00,30.00,-0.05,0.01,-0.04,127,161,220 ,
3291,204.00,-540.00,16740.00,0.06,-0.35,10.04,66.00,20.00,32.00,0.01,-0.17,0.08,122,162,218 ,
3990,96.00,-456.00,16920.00,0.08,-0.31,10.01,66.00,22.00,31.00,0.08,0.01,0.08,122,158,216 ,
4691,160.00,-576.00,16892.00,0.03,-0.32,10.09,67.00,16.00,30.00,0.01,-0.05,0.02,122,159,215 ,
5390,32.00,-488.00,16964.00,0.06,-0.35,10.12,65.00,17.00,30.00,0.01,0.01,-0.04,119,159,212 ,
6091,172.00,-500.00,16952.00,0.05,-0.34,10.16,64.00,17.00,31.00,-0.05,0.01,0.14,124,160,213 ,
6790,208.00,-628.00,16756.00,0.03,-0.34,10.14,67.00,20.00,31.00,0.01,0.25,0.02,121,159,213 ,
7491,96.00,-664.00,16712.00,0.09,-0.32,10.05,69.00,21.00,33.00,0.08,0.13,0.08,122,159,212 ,
8190,112.00,-608.00,16880.00,0.05,-0.34,10.12,63.00,21.00,32.00,-0.11,0.07,0.08,117,158,209 ,
8890,228.00,-644.00,16768.00,0.06,-0.38,10.08,65.00,20.00,31.00,0.08,0.07,-0.04,120,158,205 ,
9590,232.00,-592.00,16952.00,0.08,-0.33,10.13,67.00,19.00,33.00,0.01,-0.11,0.08,113,156,201 ,
10290,88.00,-560.00,16876.00,0.06,-0.39,10.12,68.00,18.00,30.00,-0.17,0.07,0.02,111,156,198 ,
button pressed
695,156.00,-552.00,16872.00,0.06,-0.35,10.08,66.00,19.00,32.00,-0.05,0.19,0.08,96,180,162 ,
988,608.00,-636.00,15668.00,-0.13,-0.37,10.51,65.00,16.00,33.00,10.26,10.44,1.54,96,164,163 ,839
1001,380.00,-696.00,16424.00,0.11,-0.43,10.19,65.00,6.00,29.00,0.01,-0.05,0.20,102,135,173 ,
1702,132.00,-616.00,16836.00,0.00,-0.37,10.05,62.00,20.00,29.00,-0.17,0.01,0.02,101,141,162 ,
2401,72.00,-612.00,16744.00,0.00,-0.36,10.07,63.00,22.00,34.00,-0.17,0.01,0.02,101,225,188 ,
3102,40.00,-660.00,16776.00,0.08,-0.35,10.02,65.00,19.00,29.00,0.08,0.07,-0.04,101,231,194 ,
3801,80.00,-628.00,16804.00,0.06,-0.36,10.13,66.00,20.00,33.00,0.14,0.13,0.14,104,239,205 ,
4148,204.00,-572.00,16824.00,0.11,-0.34,10.10,63.00,19.00,30.00,-0.11,-0.11,0.08,109,242,208 ,318
4699,124.00,-628.00,16812.00,0.03,-0.33,10.03,64.00,18.00,34.00,-0.05,-0.05,0.08,106,257,216 ,2120
5423,100.00,-492.00,16792.00,0.07,-0.31,10.04,66.00,19.00,31.00,-0.05,0.01,-0.10,109,257,220 ,9483
6122,164.00,-556.00,16856.00,0.06,-0.37,10.03,66.00,19.00,32.00,-0.11,0.13,-0.04,112,249,221 ,
6823,108.00,-576.00,16848.00,0.13,-0.32,10.05,64.00,17.00,29.00,-0.11,-0.23,0.02,112,226,219 ,
7522,156.00,-624.00,16856.00,0.10,-0.32,10.07,63.00,19.00,30.00,-0.23,0.01,0.08,111,180,208 ,
8223,192.00,-604.00,16912.00,0.11,-0.35,10.11,68.00,20.00,31.00,0.01,0.01,-0.04,111,168,206 ,
8922,136.00,-540.00,16940.00,0.01,-0.35,10.15,66.00,21.00,30.00,0.14,0.13,-0.10,113,164,205 ,
9622,24.00,-492.00,16716.00,0.01,-0.34,10.06,64.00,19.00,31.00,0.01,0.01,0.02,115,163,205 ,
10322,184.00,-624.00,16740.00,0.11,-0.33,10.12,65.00,21.00,32.00,-0.17,0.25,0.02,115,165,205 ,
button pressed
696,92.00,-608.00,16872.00,0.01,-0.37,10.11,67.00,18.00,31.00,0.01,0.01,-0.04,124,178,227 ,
1269,-2116.00,472.00,11080.00,1.82,-1.05,4.79,76.00,10.00,23.00,-0.17,0.38,-0.04,124,163,222 ,149
1290,216.00,-708.00,17220.00,0.06,-0.33,10.48,67.00,13.00,35.00,0.14,0.56,0.14,127,164,223 ,880
1989,56.00,-540.00,16952.00,0.04,-0.33,10.07,67.00,19.00,33.00,0.20,0.13,-0.04,120,150,212 ,
2690,156.00,-664.00,16992.00,0.06,-0.34,10.05,65.00,19.00,29.00,-0.11,0.13,-0.04,125,156,211 ,
3389,172.00,-624.00,16932.00,0.11,-0.29,10.12,67.00,20.00,28.00,-0.11,-0.05,-0.10,120,162,213 ,
4090,196.00,-568.00,16844.00,0.09,-0.31,10.01,65.00,17.00,29.00,-0.05,-0.23,-0.04,120,162,212 ,
4789,176.00,-528.00,16964.00,0.08,-0.35,10.10,68.00,19.00,31.00,0.01,0.01,-0.04,122,160,209 ,
5361,88.00,-620.00,16812.00,0.09,-0.37,10.15,68.00,20.00,30.00,-0.05,0.13,0.02,119,163,208 ,
6062,60.00,-648.00,16852.00,0.06,-0.35,10.10,65.00,22.00,32.00,-0.05,0.13,0.08,119,164,204 ,
6761,176.00,-568.00,16796.00,0.09,-0.36,10.07,67.00,18.00,31.00,0.14,0.07,0.08,123,164,209 ,
7462,112.00,-676.00,16812.00,0.04,-0.36,9.99,65.00,19.00,31.00,0.08,0.01,0.08,120,158,203 ,
8161,164.00,-600.00,16848.00,0.08,-0.34,10.12,64.00,19.00,31.00,-0.17,-0.17,0.14,120,159,202 ,
8861,84.00,-616.00,16672.00,0.06,-0.36,10.06,66.00,20.00,33.00,0.01,0.07,0.02,117,160,200 ,
9561,104.00,-576.00,16964.00,0.10,-0.33,10.02,64.00,20.00,29.00,-0.05,-0.05,0.08,117,159,199 ,
10261,124.00,-544.00,16808.00,0.10,-0.34,10.02,64.00,19.00,30.00,-0.05,0.01,0.08,118,161,198 ,
button pressed
696,152.00,-564.00,16896.00,0.06,-0.37,10.07,66.00,17.00,31.00,-0.05,0.07,0.14,116,179,199 ,
1174,264.00,-564.00,15924.00,0.16,-0.34,9.53,64.00,21.00,29.00,-0.11,-0.11,-0.04,119,165,197 ,1830
1874,152.00,-524.00,16804.00,0.12,-0.33,10.04,63.00,22.00,35.00,0.01,0.01,0.20,117,162,198 ,
2574,176.00,-648.00,16884.00,0.08,-0.38,10.03,65.00,19.00,32.00,-0.11,0.01,-0.10,121,155,190 ,
3273,192.00,-624.00,16892.00,0.05,-0.35,10.09,69.00,17.00,30.00,-0.11,0.07,-0.04,116,157,195 ,
3974,172.00,-608.00,16612.00,0.04,-0.38,10.02,63.00,20.00,31.00,-0.17,-0.05,0.08,119,159,196 ,
4673,164.00,-572.00,16704.00,0.09,-0.36,10.03,62.00,18.00,30.00,-0.05,0.07,0.14,115,157,194 ,
5374,128.00,-600.00,16816.00,0.08,-0.36,10.12,66.00,21.00,32.00,-0.11,0.01,0.08,118,160,195 ,
6073,244.00,-520.00,16744.00,0.09,-0.33,10.04,66.00,18.00,32.00,-0.05,-0.05,-0.04,122,160,195 ,
6773,152.00,-576.00,16900.00,0.09,-0.33,10.10,65.00,16.00,30.00,0.08,-0.11,-0.29,116,160,197 ,
7474,96.00,-552.00,16868.00,0.04,-0.31,10.09,69.00,16.00,32.00,0.08,-0.23,0.14,119,159,197 ,
8173,84.00,-520.00,16792.00,0.07,-0.31,10.10,65.00,18.00,34.00,-0.29,-0.11,0.08,120,160,196 ,
8874,220.00,-608.00,16808.00,0.12,-0.39,10.13,63.00,16.00,30.00,0.01,-0.11,-0.10,117,160,197 ,
button pressed
696,152.00,-588.00,16876.00,0.09,-0.35,10.10,67.00,19.00,34.00,0.14,0.13,0.14,133,187,225 ,
1396,68.00,-648.00,16712.00,0.06,-0.38,10.00,66.00,20.00,33.00,0.14,0.01,0.26,134,177,217 ,
2096,164.00,-572.00,16892.00,0.08,-0.33,10.10,66.00,22.00,30.00,-0.17,0.19,0.02,127,170,216 ,
2795,140.00,-628.00,16888.00,0.13,-0.33,10.12,68.00,18.00,32.00,0.01,-0.05,0.08,131,172,214 ,
3496,208.00,-504.00,16728.00,0.18,-0.38,10.01,65.00,21.00,30.00,0.01,0.01,0.02,130,168,211 ,
4195,196.00,-572.00,16816.00,0.09,-0.34,10.10,67.00,19.00,32.00,0.08,-0.05,0.02,129,210,221 ,
4896,104.00,-644.00,16800.00,0.11,-0.38,10.10,68.00,21.00,32.00,-0.05,0.01,-0.04,126,216,222 ,
5595,168.00,-592.00,16944.00,0.11,-0.31,10.05,66.00,19.00,34.00,0.01,0.01,-0.04,126,216,222 ,
6295,180.00,-572.00,16924.00,0.09,-0.33,10.10,67.00,20.00,31.00,0.01,0.13,0.20,126,211,221 ,
6995,128.00,-568.00,16908.00,0.10,-0.32,10.09,69.00,17.00,31.00,0.14,-0.05,0.20,129,211,221 ,
7695,108.00,-564.00,16880.00,0.08,-0.35,10.08,66.00,20.00,31.00,0.20,0.07,0.14,126,209,220 ,
8395,108.00,-540.00,16868.00,0.11,-0.30,10.02,68.00,20.00,29.00,-0.05,0.07,-0.10,129,208,219 ,
9095,76.00,-540.00,16792.00,0.06,-0.33,10.01,65.00,20.00,31.00,0.01,-0.11,0.02,128,209,219 ,
9794,64.00,-476.00,16712.00,0.09,-0.36,10.07,63.00,18.00,35.00,-0.05,-0.05,-0.04,124,205,218 ,
10495,140.00,-532.00,16976.00,0.05,-0.30,10.09,67.00,16.00,30.00,0.01,-0.05,0.08,130,204,216 ,
