Program started
Initialize MPU6050
 * Sleep Mode:            Disabled
 * Clock Source:          PLL with X axis gyroscope reference
 * Accelerometer:         +/- 2 g
 * Accelerometer offsets: -3540 / -3691 / 1478
 * Gyroscope:         2000 dps
 * Gyroscope offsets: 155 / 15 / 15
button pressed
Time, ACC_X-raw, ACC_Y-raw, ACC_Z-raw, ACC_X-norm, ACC_Y-norm, ACC_Z-norm, GYRO_X-raw, GYRO_Y-raw,GYRO_Z-raw, GYRO_X-norm, GYRO_Y-norm, GYRO_Z-norm, Ceramic_Piezo, Film_Piezo, Weighted_Film_Piezo, Vibration_Senso
697,80.00,-560.00,16716.00,0.07,-0.36,10.03,66.00,19.00,27.00,0.07,-0.06,-0.07,208,338,204 ,
1397,232.00,-612.00,16916.00,0.07,-0.36,10.08,63.00,20.00,31.00,-0.12,0.06,-0.01,165,262,190 ,
2097,180.00,-556.00,16776.00,0.12,-0.35,10.01,65.00,19.00,34.00,0.07,-0.00,0.11,169,306,212 ,
2797,136.00,-640.00,16832.00,0.13,-0.34,10.07,66.00,19.00,29.00,0.07,-0.12,-0.25,176,221,204 ,
3496,80.00,-660.00,16768.00,0.12,-0.32,10.05,69.00,20.00,34.00,-0.06,0.12,-0.01,176,163,187 ,
4197,96.00,-660.00,16896.00,0.08,-0.38,10.00,67.00,20.00,32.00,0.07,0.06,-0.19,175,168,187 ,
4896,116.00,-612.00,16872.00,0.07,-0.36,10.13,66.00,19.00,30.00,0.00,-0.00,-0.19,177,176,190 ,
5597,220.00,-628.00,16900.00,0.10,-0.38,10.11,63.00,20.00,32.00,-0.18,-0.12,0.11,177,184,193 ,
6296,184.00,-608.00,16788.00,0.09,-0.34,10.05,66.00,17.00,31.00,-0.24,-0.12,0.05,175,189,195 ,
6996,260.00,-672.00,17012.00,0.12,-0.34,10.16,66.00,21.00,35.00,0.13,0.12,0.05,176,194,197 ,
7696,152.00,-628.00,16864.00,0.09,-0.35,10.03,67.00,20.00,32.00,-0.06,0.18,-0.13,176,196,198 ,
8396,128.00,-660.00,16860.00,0.07,-0.40,10.13,66.00,20.00,32.00,0.00,0.06,0.11,176,201,201 ,
9096,156.00,-600.00,16708.00,0.11,-0.31,10.04,65.00,16.00,31.00,-0.06,-0.06,-0.13,177,201,201 ,
9796,108.00,-612.00,16780.00,0.16,-0.41,10.02,66.00,18.00,32.00,-0.06,-0.12,-0.07,178,199,202 ,
10495,228.00,-692.00,16796.00,0.08,-0.36,10.07,64.00,22.00,31.00,-0.12,0.06,-0.07,178,200,204 ,
button pressed
696,228.00,-624.00,16904.00,0.16,-0.38,10.11,63.00,18.00,32.00,-0.06,0.12,0.05,175,212,195 ,
1396,64.00,-548.00,16964.00,0.11,-0.33,10.07,67.00,19.00,33.00,0.07,0.06,0.05,175,209,197 ,
2096,232.00,-672.00,16900.00,0.07,-0.37,10.05,63.00,20.00,29.00,-0.06,-0.06,-0.13,180,306,234 ,
2796,208.00,-604.00,16812.00,0.15,-0.38,10.02,65.00,22.00,30.00,-0.06,0.18,-0.07,182,370,263 ,
3496,232.00,-540.00,16924.00,0.10,-0.33,10.13,66.00,20.00,31.00,0.00,-0.12,-0.07,179,205,215 ,
4196,236.00,-620.00,16768.00,0.17,-0.38,10.14,66.00,19.00,29.00,-0.12,0.06,-0.01,181,176,206 ,
4895,192.00,-604.00,17048.00,0.10,-0.34,10.19,65.00,18.00,31.00,0.00,-0.06,0.05,184,173,206 ,
5596,220.00,-648.00,16788.00,0.10,-0.37,10.04,65.00,20.00,27.00,0.07,-0.00,-0.13,184,185,210 ,
6295,80.00,-664.00,16696.00,0.10,-0.40,9.98,67.00,20.00,33.00,-0.06,-0.06,0.17,181,194,213 ,
6996,236.00,-532.00,16820.00,0.11,-0.31,10.10,65.00,20.00,33.00,-0.06,-0.12,0.05,180,191,213 ,
7695,184.00,-640.00,16764.00,0.11,-0.38,10.03,65.00,19.00,31.00,-0.12,0.06,0.17,183,195,215 ,
8395,168.00,-588.00,16816.00,0.13,-0.32,10.03,68.00,19.00,34.00,0.00,-0.00,0.11,184,197,216 ,
9095,116.00,-672.00,16856.00,0.13,-0.36,10.11,65.00,20.00,32.00,0.00,0.12,0.05,184,199,218 ,
9795,196.00,-556.00,16824.00,0.13,-0.37,10.09,66.00,21.00,32.00,-0.06,0.12,0.11,183,200,220 ,
10496,104.00,-676.00,16944.00,0.15,-0.40,10.11,64.00,18.00,32.00,-0.06,0.24,-0.01,184,200,221 ,
button pressed
696,164.00,-592.00,16812.00,0.09,-0.39,10.07,66.00,17.00,32.00,0.13,-0.12,0.05,183,204,207 ,
1397,160.00,-620.00,16988.00,0.09,-0.34,10.12,64.00,20.00,35.00,-0.12,-0.06,0.11,178,204,207 ,
2096,188.00,-556.00,16748.00,0.10,-0.36,10.07,67.00,19.00,30.00,0.00,0.06,0.05,179,258,227 ,
2797,260.00,-584.00,16672.00,0.10,-0.37,10.00,68.00,19.00,33.00,0.07,-0.12,0.11,182,239,226 ,
3496,144.00,-688.00,16920.00,0.07,-0.41,10.15,67.00,20.00,32.00,0.07,0.06,0.05,182,200,215 ,
4196,272.00,-668.00,16744.00,0.12,-0.34,10.04,68.00,17.00,34.00,0.13,-0.00,-0.13,181,193,214 ,
4896,112.00,-604.00,16832.00,0.07,-0.36,10.07,63.00,18.00,31.00,-0.24,-0.00,0.05,184,202,218 ,
5596,212.00,-564.00,16940.00,0.08,-0.31,10.04,66.00,22.00,29.00,0.07,0.06,-0.19,182,201,219 ,
6296,132.00,-624.00,16728.00,0.11,-0.39,10.08,64.00,21.00,33.00,-0.18,0.12,0.11,182,200,220 ,
6996,224.00,-520.00,16900.00,0.11,-0.41,10.09,66.00,20.00,31.00,0.07,-0.00,-0.01,182,202,221 ,
7695,120.00,-628.00,16788.00,0.09,-0.35,10.03,63.00,19.00,32.00,-0.18,0.06,0.17,184,202,222 ,
8396,276.00,-572.00,16856.00,0.11,-0.38,10.09,67.00,17.00,34.00,0.19,-0.12,0.24,184,203,224 ,
9095,184.00,-668.00,16856.00,0.11,-0.40,10.08,64.00,18.00,33.00,-0.06,0.06,-0.01,185,205,224 ,
9796,144.00,-596.00,16824.00,0.10,-0.38,10.07,66.00,22.00,32.00,0.00,0.06,-0.01,182,203,224 ,
10495,108.00,-612.00,16840.00,0.05,-0.37,10.07,64.00,18.00,32.00,-0.12,-0.00,-0.01,184,204,225 ,
button pressed
696,172.00,-524.00,16788.00,0.08,-0.33,10.07,67.00,16.00,33.00,-0.06,-0.00,-0.13,182,224,215 ,
1397,324.00,-632.00,16912.00,0.15,-0.35,10.13,66.00,18.00,30.00,0.00,-0.00,-0.01,182,272,235 ,
2096,176.00,-500.00,16920.00,0.03,-0.34,10.03,64.00,18.00,33.00,-0.12,-0.12,-0.13,189,267,251 ,
2796,116.00,-600.00,16852.00,0.05,-0.37,10.14,67.00,21.00,33.00,0.19,-0.00,0.05,190,210,241 ,
3496,144.00,-584.00,16924.00,0.12,-0.38,10.10,65.00,18.00,31.00,-0.12,-0.06,0.05,191,205,234 ,
4196,160.00,-608.00,16940.00,0.08,-0.38,10.05,64.00,18.00,31.00,-0.06,-0.00,0.05,186,162,217 ,
4896,200.00,-604.00,16976.00,0.09,-0.36,10.11,65.00,17.00,31.00,-0.12,-0.06,0.05,188,171,215 ,
5596,140.00,-624.00,16904.00,0.08,-0.36,10.08,65.00,19.00,34.00,0.07,-0.06,0.11,186,177,217 ,
6295,224.00,-572.00,16840.00,0.12,-0.33,10.05,66.00,21.00,32.00,-0.06,0.18,0.11,186,185,219 ,
6996,216.00,-616.00,16780.00,0.11,-0.36,10.04,64.00,19.00,32.00,-0.18,-0.31,0.11,183,188,219 ,
7695,220.00,-708.00,16904.00,0.13,-0.45,10.20,63.00,19.00,31.00,0.07,-0.00,-0.07,183,195,221 ,
8396,208.00,-516.00,16892.00,0.10,-0.33,10.05,64.00,18.00,30.00,0.07,-0.19,0.05,183,197,221 ,
9095,176.00,-596.00,16864.00,0.08,-0.38,10.14,65.00,17.00,30.00,0.13,-0.06,-0.07,185,198,221 ,
9795,244.00,-564.00,16828.00,0.16,-0.36,10.11,68.00,17.00,32.00,-0.12,-0.06,0.11,186,198,222 ,
10496,148.00,-612.00,16984.00,0.10,-0.37,10.16,63.00,18.00,30.00,0.00,-0.00,-0.13,184,198,220 ,
button pressed
697,180.00,-596.00,16772.00,0.09,-0.35,10.09,67.00,16.00,27.00,-0.12,-0.19,-0.19,172,218,190 ,
1396,144.00,-668.00,16892.00,0.09,-0.38,10.11,65.00,19.00,30.00,-0.06,0.12,0.11,174,253,206 ,
2096,216.00,-536.00,16868.00,0.15,-0.34,10.13,66.00,20.00,29.00,-0.12,0.06,-0.07,183,253,231 ,
2796,160.00,-540.00,16772.00,0.10,-0.36,10.09,65.00,17.00,30.00,-0.06,-0.12,0.11,182,124,194 ,
3496,164.00,-712.00,16780.00,0.05,-0.42,10.09,66.00,20.00,31.00,0.07,0.12,0.11,180,144,195 ,
4196,228.00,-564.00,16928.00,0.12,-0.39,10.18,65.00,20.00,31.00,0.07,0.12,0.05,181,170,199 ,
4896,176.00,-612.00,16860.00,0.11,-0.37,10.00,68.00,20.00,34.00,-0.06,0.12,0.05,182,179,202 ,
5595,192.00,-576.00,16856.00,0.11,-0.34,10.08,62.00,20.00,33.00,-0.12,0.12,-0.01,181,186,205 ,
6296,240.00,-428.00,16796.00,0.11,-0.31,10.04,64.00,19.00,30.00,0.00,-0.00,0.05,182,188,208 ,
6995,220.00,-612.00,16924.00,0.12,-0.36,10.14,65.00,21.00,34.00,0.13,-0.00,0.11,181,191,208 ,
7696,176.00,-648.00,16812.00,0.12,-0.38,10.06,63.00,17.00,30.00,-0.18,-0.19,0.05,181,194,211 ,
8395,232.00,-632.00,16688.00,0.15,-0.38,10.03,67.00,20.00,29.00,-0.06,0.12,-0.01,184,195,213 ,
9095,84.00,-648.00,16900.00,0.12,-0.35,10.00,67.00,17.00,31.00,-0.12,-0.12,-0.07,183,196,216 ,
9796,196.00,-564.00,16908.00,0.04,-0.37,10.14,63.00,23.00,31.00,0.07,0.06,-0.19,186,196,216 ,
10495,200.00,-564.00,16924.00,0.11,-0.33,10.01,65.00,19.00,31.00,0.00,-0.06,-0.07,178,197,216 ,
button pressed
697,156.00,-636.00,16820.00,0.14,-0.33,10.09,69.00,20.00,31.00,0.19,0.18,0.05,180,270,224 ,
1396,196.00,-584.00,16920.00,0.16,-0.39,10.15,67.00,19.00,31.00,-0.06,0.06,0.05,183,285,234 ,
2097,132.00,-604.00,16824.00,0.10,-0.38,9.99,67.00,18.00,35.00,0.07,-0.12,0.30,187,344,269 ,
2796,188.00,-612.00,16888.00,0.09,-0.38,10.04,64.00,20.00,33.00,-0.12,0.06,0.24,192,296,270 ,
3496,224.00,-584.00,16912.00,0.15,-0.38,10.09,66.00,21.00,31.00,0.07,-0.00,0.11,189,142,218 ,
4196,100.00,-640.00,16708.00,0.05,-0.35,10.03,66.00,19.00,30.00,0.00,0.12,0.05,189,146,216 ,
4896,16.00,-640.00,16772.00,0.05,-0.37,9.99,64.00,21.00,30.00,0.00,0.06,0.05,190,161,216 ,
5596,124.00,-628.00,16856.00,0.11,-0.37,10.08,64.00,18.00,32.00,-0.12,-0.00,0.11,190,168,216 ,
6296,208.00,-580.00,16848.00,0.19,-0.33,10.08,65.00,20.00,31.00,-0.06,0.30,0.05,186,176,215 ,
6995,140.00,-668.00,16820.00,0.11,-0.41,10.11,65.00,22.00,33.00,-0.06,0.18,0.11,186,179,213 ,
7696,212.00,-568.00,16792.00,0.10,-0.35,10.02,66.00,21.00,29.00,-0.06,0.06,-0.13,187,183,214 ,
8395,160.00,-600.00,16748.00,0.14,-0.36,10.00,64.00,19.00,32.00,-0.06,-0.00,0.11,184,188,213 ,
9096,172.00,-588.00,16876.00,0.09,-0.33,10.08,67.00,23.00,32.00,0.07,0.24,0.17,183,190,213 ,
9795,192.00,-592.00,16868.00,0.09,-0.31,10.07,65.00,19.00,31.00,0.13,-0.00,0.05,183,191,211 ,
10495,192.00,-592.00,16764.00,0.11,-0.34,10.03,66.00,23.00,32.00,-0.12,0.18,-0.07,185,193,211 ,
button pressed
696,172.00,-640.00,16880.00,0.07,-0.34,10.10,64.00,20.00,31.00,0.00,0.18,0.05,178,275,220 ,
1396,244.00,-608.00,16800.00,0.12,-0.38,10.02,64.00,16.00,33.00,-0.18,-0.12,0.05,181,315,239 ,
2095,136.00,-532.00,16956.00,0.14,-0.32,10.09,64.00,20.00,31.00,-0.12,0.12,0.11,185,277,242 ,
2796,172.00,-676.00,16872.00,0.13,-0.37,10.10,65.00,18.00,31.00,0.13,0.12,0.05,193,244,245 ,
3495,136.00,-608.00,16760.00,0.05,-0.37,10.06,64.00,20.00,29.00,-0.18,0.18,-0.01,189,224,234 ,
4196,160.00,-532.00,16844.00,0.06,-0.36,10.11,66.00,23.00,29.00,-0.06,0.18,-0.19,185,238,238 ,
4895,164.00,-624.00,16840.00,0.09,-0.36,10.18,65.00,18.00,34.00,0.00,-0.00,0.05,189,236,237 ,
5596,204.00,-620.00,16828.00,0.09,-0.39,9.95,65.00,15.00,31.00,0.19,-0.25,-0.07,189,228,234 ,
6296,276.00,-576.00,16868.00,0.13,-0.36,10.08,67.00,18.00,33.00,0.13,-0.06,-0.01,189,244,240 ,
6995,224.00,-660.00,16852.00,0.10,-0.36,10.03,68.00,15.00,31.00,0.00,-0.19,0.05,189,226,235 ,
7696,204.00,-624.00,16688.00,0.15,-0.39,10.04,65.00,19.00,32.00,-0.18,-0.06,-0.13,190,228,235 ,
8395,156.00,-612.00,16980.00,0.05,-0.38,10.12,67.00,16.00,30.00,0.13,0.06,0.05,190,231,236 ,
9096,180.00,-640.00,16836.00,0.11,-0.42,10.04,69.00,20.00,32.00,0.13,-0.00,-0.01,191,206,228 ,
9795,240.00,-536.00,16860.00,0.18,-0.32,10.15,65.00,17.00,31.00,0.00,-0.12,-0.01,189,198,226 ,
10495,240.00,-660.00,16872.00,0.11,-0.30,10.10,63.00,19.00,33.00,0.00,-0.00,0.11,190,221,232 ,
button pressed
696,288.00,-612.00,16900.00,0.17,-0.40,10.03,64.00,15.00,33.00,0.00,-0.12,-0.07,172,202,181 ,
1396,88.00,-620.00,16764.00,0.10,-0.37,10.01,64.00,20.00,29.00,-0.06,0.06,-0.07,172,204,186 ,
2096,204.00,-576.00,16744.00,0.13,-0.35,10.06,65.00,18.00,31.00,0.00,0.06,-0.01,173,244,206 ,
2796,96.00,-676.00,16876.00,0.09,-0.39,10.08,67.00,20.00,32.00,-0.06,0.18,0.24,177,253,218 ,
3496,204.00,-536.00,16832.00,0.12,-0.34,10.01,66.00,19.00,32.00,-0.12,-0.06,0.05,179,202,206 ,
4195,164.00,-628.00,16656.00,0.14,-0.39,10.08,63.00,20.00,35.00,-0.24,0.12,-0.01,182,194,207 ,
4896,196.00,-592.00,16876.00,0.10,-0.42,10.12,63.00,16.00,31.00,-0.06,-0.12,-0.01,182,193,209 ,
5595,172.00,-564.00,16764.00,0.06,-0.33,10.10,64.00,18.00,29.00,0.00,-0.12,-0.19,184,195,211 ,
6296,272.00,-556.00,16848.00,0.06,-0.33,10.11,65.00,18.00,33.00,0.00,-0.06,0.05,182,195,212 ,
6996,240.00,-588.00,16796.00,0.14,-0.34,10.00,67.00,19.00,33.00,0.00,-0.06,-0.07,183,196,212 ,
7695,200.00,-616.00,16920.00,0.09,-0.39,10.14,65.00,19.00,32.00,0.07,-0.00,0.05,184,197,215 ,
8396,212.00,-608.00,16876.00,0.13,-0.39,10.08,63.00,18.00,28.00,-0.12,-0.12,-0.13,187,199,218 ,
9095,120.00,-580.00,16844.00,0.09,-0.39,10.12,65.00,19.00,34.00,-0.06,-0.00,0.05,186,199,221 ,
9796,316.00,-636.00,16920.00,0.12,-0.39,10.07,69.00,21.00,30.00,-0.06,0.18,0.05,187,200,222 ,
10495,108.00,-536.00,16720.00,0.04,-0.32,10.09,67.00,18.00,31.00,0.19,-0.06,0.11,186,200,224 ,
button pressed
695,72.00,-640.00,16788.00,0.10,-0.37,10.08,65.00,22.00,31.00,-0.12,0.18,-0.13,178,205,198 ,
1396,104.00,-664.00,16852.00,0.12,-0.36,10.05,65.00,20.00,32.00,-0.06,0.12,-0.01,176,241,211 ,
2095,256.00,-564.00,16840.00,0.11,-0.34,9.97,69.00,20.00,31.00,-0.06,-0.00,-0.01,185,240,238 ,
2796,220.00,-620.00,16800.00,0.10,-0.36,10.04,66.00,17.00,29.00,0.00,-0.06,-0.19,190,189,224 ,
3495,112.00,-604.00,16656.00,0.09,-0.38,10.09,65.00,21.00,31.00,-0.06,-0.06,-0.01,189,172,214 ,
4195,228.00,-764.00,16896.00,0.12,-0.34,10.10,67.00,19.00,31.00,0.07,-0.00,-0.01,185,183,214 ,
4896,184.00,-660.00,16760.00,0.15,-0.41,10.06,63.00,19.00,32.00,-0.24,0.06,0.05,183,186,211 ,
5595,272.00,-700.00,16736.00,0.18,-0.39,10.02,62.00,19.00,31.00,-0.18,0.12,0.11,183,188,211 ,
6296,160.00,-600.00,16784.00,0.11,-0.40,9.98,66.00,18.00,30.00,0.00,-0.06,-0.01,183,192,212 ,
6995,168.00,-668.00,16804.00,0.11,-0.37,10.06,62.00,20.00,34.00,-0.06,-0.06,-0.01,184,196,214 ,
7695,120.00,-596.00,16800.00,0.08,-0.33,10.01,66.00,19.00,30.00,-0.06,0.06,-0.07,183,199,214 ,
8395,216.00,-548.00,16780.00,0.13,-0.33,10.09,67.00,18.00,33.00,0.07,-0.00,0.17,183,198,213 ,
9095,168.00,-664.00,16924.00,0.13,-0.41,10.18,69.00,17.00,28.00,0.07,-0.06,-0.13,182,196,213 ,
9795,208.00,-608.00,16800.00,0.09,-0.34,10.13,66.00,21.00,29.00,0.00,0.12,-0.07,184,198,213 ,
10495,152.00,-628.00,16960.00,0.09,-0.38,10.08,68.00,19.00,33.00,0.00,-0.00,-0.07,185,200,213 ,
button pressed
696,100.00,-620.00,16884.00,0.08,-0.39,10.24,64.00,20.00,29.00,-0.06,0.06,-0.13,175,206,186 ,
1396,260.00,-500.00,16900.00,0.14,-0.34,10.03,66.00,19.00,28.00,0.13,0.06,-0.13,174,240,199 ,
2096,140.00,-624.00,16808.00,0.08,-0.36,10.05,64.00,22.00,32.00,0.07,0.06,0.11,177,202,194 ,
2796,208.00,-580.00,16872.00,0.09,-0.34,10.17,68.00,18.00,30.00,-0.06,-0.00,-0.01,187,222,229 ,
3496,88.00,-616.00,16820.00,0.11,-0.34,10.04,66.00,23.00,31.00,0.13,0.18,0.05,186,155,204 ,
4195,208.00,-488.00,16816.00,0.09,-0.38,10.11,66.00,17.00,30.00,0.13,0.06,-0.19,183,148,197 ,
4896,212.00,-608.00,16756.00,0.13,-0.36,10.02,65.00,20.00,30.00,-0.06,0.18,-0.13,182,161,197 ,
5595,256.00,-592.00,16776.00,0.14,-0.36,10.11,64.00,20.00,31.00,0.07,0.18,-0.01,184,193,207 ,
6296,168.00,-568.00,16952.00,0.07,-0.35,10.05,64.00,19.00,30.00,-0.18,0.06,0.05,184,202,212 ,
6995,216.00,-600.00,17004.00,0.11,-0.33,10.17,68.00,21.00,30.00,0.00,0.18,-0.01,183,209,214 ,
7695,172.00,-616.00,16804.00,0.10,-0.38,10.10,65.00,21.00,32.00,0.07,0.12,0.05,184,208,215 ,
8396,232.00,-552.00,16844.00,0.09,-0.31,10.11,67.00,20.00,32.00,-0.06,-0.00,-0.01,183,210,216 ,
9095,220.00,-608.00,16844.00,0.13,-0.36,10.08,64.00,19.00,33.00,0.00,-0.06,-0.01,183,210,218 ,
9796,172.00,-604.00,16820.00,0.11,-0.36,10.08,62.00,18.00,31.00,-0.12,-0.00,-0.01,184,209,217 ,
10495,188.00,-584.00,16828.00,0.09,-0.33,10.14,67.00,21.00,35.00,-0.06,0.12,0.11,183,208,216 ,
button pressed
695,240.00,-604.00,16728.00,0.12,-0.34,10.04,64.00,20.00,31.00,-0.18,-0.06,0.05,171,200,176 ,
1395,228.00,-524.00,16948.00,0.12,-0.38,10.11,65.00,18.00,33.00,0.00,0.18,0.05,172,197,179 ,
2095,36.00,-620.00,16908.00,0.15,-0.35,10.09,65.00,18.00,29.00,0.07,-0.00,0.11,174,219,193 ,
2795,220.00,-660.00,16976.00,0.04,-0.41,10.08,64.00,19.00,31.00,-0.06,-0.00,-0.19,191,223,231 ,
3495,124.00,-608.00,16772.00,0.09,-0.36,10.06,67.00,17.00,30.00,0.07,-0.00,0.05,186,191,221 ,
4195,92.00,-656.00,16668.00,0.07,-0.39,10.00,61.00,20.00,30.00,-0.12,0.06,-0.07,187,190,214 ,
4894,188.00,-568.00,16796.00,0.11,-0.33,10.04,67.00,21.00,32.00,0.00,-0.06,0.11,186,185,208 ,
5595,164.00,-528.00,16748.00,0.10,-0.32,10.02,65.00,19.00,30.00,0.13,0.06,-0.01,184,187,209 ,
6294,176.00,-652.00,16668.00,0.06,-0.37,10.01,66.00,17.00,32.00,-0.06,-0.00,-0.01,182,188,208 ,
6995,216.00,-568.00,16900.00,0.11,-0.35,10.16,66.00,18.00,31.00,0.07,-0.19,-0.07,182,187,207 ,
7695,184.00,-572.00,16844.00,0.11,-0.41,10.02,64.00,18.00,32.00,-0.18,-0.06,-0.01,182,190,208 ,
8394,200.00,-596.00,16912.00,0.10,-0.38,10.09,67.00,22.00,30.00,0.25,0.06,-0.01,183,194,206 ,
9095,180.00,-616.00,16828.00,0.11,-0.33,10.07,66.00,17.00,31.00,-0.12,-0.06,0.05,180,190,207 ,
9794,148.00,-600.00,16760.00,0.11,-0.36,10.13,66.00,19.00,30.00,-0.06,0.12,-0.07,180,193,208 ,
10495,172.00,-584.00,16844.00,0.07,-0.34,10.05,64.00,19.00,32.00,-0.06,-0.00,0.17,181,194,208 ,
button pressed
697,0.00,-516.00,16860.00,0.04,-0.36,10.08,64.00,31.00,30.00,-0.18,0.73,0.05,168,240,185 ,
1396,72.00,-560.00,16704.00,0.05,-0.34,9.98,64.00,16.00,33.00,-0.06,-0.19,0.11,167,119,152 ,
2096,244.00,-536.00,16832.00,0.16,-0.34,10.10,66.00,18.00,31.00,0.07,-0.06,-0.01,178,273,222 ,
2796,128.00,-552.00,16884.00,0.09,-0.36,10.05,64.00,18.00,32.00,-0.12,-0.06,0.05,179,204,205 ,
3496,180.00,-588.00,16904.00,0.09,-0.33,10.18,67.00,16.00,30.00,-0.06,-0.12,0.11,179,167,193 ,
4196,144.00,-636.00,16960.00,0.15,-0.44,10.11,65.00,21.00,31.00,-0.12,0.18,-0.07,176,189,199 ,
4896,68.00,-576.00,16856.00,0.08,-0.39,10.05,64.00,19.00,31.00,-0.06,0.06,-0.01,176,190,198 ,
5595,88.00,-540.00,16888.00,0.08,-0.38,10.10,68.00,21.00,31.00,0.13,-0.00,0.05,178,194,199 ,
6296,128.00,-600.00,16872.00,0.10,-0.39,10.10,66.00,20.00,28.00,0.00,-0.00,-0.07,179,192,200 ,
6995,80.00,-612.00,16852.00,0.06,-0.34,10.04,63.00,15.00,33.00,-0.18,-0.12,0.17,178,197,201 ,
7696,208.00,-616.00,16876.00,0.08,-0.34,10.12,65.00,18.00,31.00,-0.12,-0.00,-0.01,179,196,202 ,
8396,120.00,-608.00,16824.00,0.09,-0.35,9.99,65.00,20.00,31.00,-0.06,-0.06,-0.01,178,198,203 ,
9095,184.00,-536.00,16824.00,0.13,-0.35,10.02,67.00,21.00,30.00,0.00,-0.06,0.05,178,199,203 ,
9796,140.00,-592.00,16956.00,0.06,-0.35,10.07,69.00,20.00,30.00,-0.12,-0.12,-0.01,179,201,203 ,
10495,152.00,-560.00,16856.00,0.09,-0.37,10.08,68.00,21.00,28.00,0.19,0.06,-0.01,180,201,205 ,
button pressed
695,152.00,-528.00,16736.00,0.04,-0.35,10.13,68.00,20.00,35.00,0.00,0.30,0.11,171,194,193 ,
1395,116.00,-680.00,16736.00,0.10,-0.37,10.02,67.00,21.00,31.00,-0.36,0.12,-0.13,173,196,192 ,
2095,164.00,-584.00,16864.00,0.13,-0.34,10.10,66.00,15.00,32.00,-0.06,-0.19,0.05,179,213,217 ,
2795,188.00,-624.00,16908.00,0.10,-0.37,10.15,65.00,19.00,32.00,0.19,-0.00,0.05,180,183,209 ,
3496,44.00,-592.00,16892.00,0.06,-0.40,10.05,68.00,17.00,31.00,0.13,-0.25,0.05,175,176,204 ,
4195,152.00,-652.00,16828.00,0.08,-0.34,10.11,65.00,18.00,32.00,0.00,-0.00,-0.07,179,188,207 ,
4895,168.00,-544.00,16804.00,0.13,-0.30,10.08,64.00,22.00,31.00,-0.06,-0.00,0.11,177,187,205 ,
5595,196.00,-608.00,16788.00,0.06,-0.37,10.05,65.00,22.00,32.00,-0.12,0.12,-0.07,178,191,204 ,
6295,128.00,-644.00,16956.00,0.09,-0.30,10.15,65.00,18.00,30.00,-0.12,-0.00,-0.01,179,192,205 ,
6995,148.00,-584.00,16852.00,0.09,-0.34,10.13,68.00,19.00,29.00,-0.06,-0.00,-0.25,176,194,205 ,
7695,220.00,-524.00,16808.00,0.12,-0.32,10.06,64.00,17.00,30.00,-0.06,-0.06,-0.07,177,193,205 ,
8394,212.00,-628.00,16928.00,0.13,-0.38,10.13,65.00,20.00,33.00,-0.06,0.06,0.24,176,196,206 ,
9095,168.00,-520.00,16800.00,0.11,-0.33,10.01,65.00,21.00,35.00,0.00,-0.06,-0.01,179,198,207 ,
9794,120.00,-636.00,16668.00,0.09,-0.38,10.00,66.00,24.00,32.00,0.07,0.18,-0.07,178,199,207 ,
10495,132.00,-508.00,16808.00,0.08,-0.31,10.02,67.00,23.00,27.00,0.00,0.12,-0.13,178,199,208 ,
button pressed
696,160.00,-616.00,16856.00,0.07,-0.33,10.05,67.00,21.00,32.00,-0.06,0.42,0.17,165,222,178 ,
1396,176.00,-572.00,16876.00,0.12,-0.39,10.05,70.00,23.00,31.00,0.13,0.18,-0.19,166,231,183 ,
2096,108.00,-612.00,16944.00,0.06,-0.35,10.08,65.00,19.00,31.00,-0.06,-0.00,0.11,185,198,229 ,
2796,220.00,-544.00,16744.00,0.14,-0.36,10.08,64.00,19.00,30.00,-0.18,0.12,-0.01,179,195,215 ,
3496,152.00,-688.00,16860.00,0.08,-0.34,10.06,67.00,20.00,34.00,-0.12,0.12,0.11,177,188,204 ,
4195,144.00,-568.00,16700.00,0.07,-0.35,10.04,65.00,16.00,33.00,0.07,-0.06,0.17,176,192,202 ,
4896,132.00,-568.00,16840.00,0.11,-0.37,10.16,65.00,18.00,30.00,0.00,-0.00,-0.07,175,193,202 ,
5595,268.00,-588.00,16756.00,0.13,-0.33,10.07,64.00,21.00,29.00,0.00,-0.00,-0.07,176,193,202 ,
6296,120.00,-516.00,16752.00,0.05,-0.35,10.06,65.00,20.00,31.00,0.07,0.12,0.05,175,197,206 ,
6995,172.00,-660.00,16736.00,0.09,-0.39,9.92,65.00,19.00,29.00,-0.06,-0.06,-0.01,177,197,207 ,
7696,120.00,-600.00,16840.00,0.14,-0.40,10.06,65.00,20.00,34.00,0.13,0.12,0.05,176,200,209 ,
8395,196.00,-624.00,16940.00,0.11,-0.29,10.12,66.00,21.00,33.00,-0.12,0.12,0.11,176,194,208 ,
9095,128.00,-556.00,16884.00,0.09,-0.33,10.08,64.00,18.00,35.00,-0.30,0.06,0.05,176,204,212 ,
9795,180.00,-600.00,16820.00,0.01,-0.39,10.08,66.00,18.00,32.00,0.25,0.06,-0.01,178,200,211 ,
10495,116.00,-632.00,16740.00,0.08,-0.35,10.08,65.00,20.00,35.00,0.07,0.12,0.24,179,202,211 ,
button pressed
695,368.00,-520.00,16696.00,0.08,-0.39,10.11,66.00,25.00,30.00,0.00,0.36,-0.07,189,202,245 ,
1396,160.00,-608.00,16788.00,0.08,-0.36,10.11,68.00,17.00,34.00,0.07,-0.25,-0.01,185,209,243 ,
2096,136.00,-596.00,16884.00,0.05,-0.40,10.01,66.00,19.00,31.00,0.07,0.06,0.05,188,166,231 ,
2796,204.00,-576.00,16784.00,0.11,-0.35,10.06,68.00,18.00,31.00,0.07,-0.06,-0.01,203,243,292 ,
3496,196.00,-604.00,16800.00,0.14,-0.36,10.03,65.00,14.00,31.00,-0.06,-0.06,-0.01,196,188,268 ,
4196,84.00,-608.00,17008.00,0.10,-0.33,10.07,65.00,19.00,29.00,0.00,0.12,-0.19,196,186,259 ,
4896,112.00,-488.00,17072.00,0.06,-0.32,10.19,62.00,20.00,34.00,-0.12,-0.00,0.11,195,197,253 ,
5595,116.00,-628.00,16836.00,0.12,-0.39,10.04,66.00,17.00,30.00,0.00,0.12,0.05,193,200,253 ,
6296,108.00,-556.00,16752.00,0.13,-0.32,10.03,65.00,19.00,29.00,0.07,-0.06,0.05,191,196,248 ,
6995,32.00,-488.00,16692.00,0.03,-0.29,10.05,65.00,18.00,30.00,-0.06,-0.00,-0.07,188,197,245 ,
7696,160.00,-488.00,16872.00,0.16,-0.35,10.04,67.00,21.00,28.00,0.13,-0.00,-0.07,188,196,242 ,
8395,88.00,-532.00,16832.00,0.03,-0.32,10.03,66.00,21.00,32.00,0.00,0.06,-0.07,189,197,237 ,
9095,152.00,-564.00,16788.00,0.05,-0.37,10.06,67.00,18.00,31.00,-0.06,-0.00,0.05,187,198,238 ,
9795,20.00,-648.00,16852.00,0.02,-0.37,10.09,64.00,16.00,31.00,0.00,0.12,-0.07,184,197,234 ,
10495,164.00,-604.00,16860.00,0.07,-0.38,10.09,65.00,19.00,34.00,0.00,-0.06,0.17,185,198,230 ,
button pressed
697,172.00,-536.00,16844.00,0.08,-0.35,10.12,66.00,14.00,31.00,0.07,-0.25,-0.07,167,206,180 ,
1396,196.00,-668.00,16844.00,0.06,-0.35,10.08,67.00,22.00,32.00,0.19,-0.00,0.05,167,221,189 ,
2096,176.00,-680.00,16920.00,0.10,-0.42,10.01,64.00,21.00,31.00,-0.18,-0.00,0.17,177,219,215 ,
2796,168.00,-536.00,16788.00,0.05,-0.34,10.11,66.00,18.00,31.00,0.00,-0.19,-0.07,179,177,205 ,
3496,132.00,-596.00,16792.00,0.04,-0.33,10.05,63.00,20.00,31.00,-0.06,0.06,-0.01,178,197,210 ,
4196,184.00,-588.00,16808.00,0.10,-0.34,10.02,64.00,21.00,31.00,-0.12,-0.06,0.11,176,198,211 ,
4896,136.00,-580.00,16792.00,0.14,-0.30,10.02,65.00,18.00,33.00,-0.06,0.06,-0.01,177,191,207 ,
5595,100.00,-596.00,16748.00,0.09,-0.38,10.05,63.00,23.00,33.00,0.00,0.30,0.11,177,194,209 ,
6296,176.00,-616.00,16800.00,0.08,-0.39,10.12,66.00,18.00,33.00,0.07,-0.06,0.05,177,200,211 ,
6995,204.00,-628.00,16892.00,0.11,-0.39,10.01,65.00,18.00,33.00,0.00,-0.12,0.05,179,199,212 ,
7696,96.00,-640.00,16800.00,0.10,-0.37,10.10,66.00,19.00,31.00,0.00,-0.06,-0.01,178,198,213 ,
8395,260.00,-604.00,16892.00,0.10,-0.36,10.01,65.00,18.00,31.00,0.00,0.12,-0.01,178,199,214 ,
9096,144.00,-596.00,16936.00,0.05,-0.33,10.14,65.00,19.00,32.00,0.00,0.06,0.24,179,197,213 ,
9795,168.00,-512.00,16760.00,0.06,-0.31,10.00,65.00,22.00,31.00,-0.06,0.06,-0.07,181,206,216 ,
10495,152.00,-556.00,16856.00,0.09,-0.33,10.08,67.00,19.00,33.00,0.13,-0.06,-0.01,179,206,217 ,
button pressed
696,184.00,-620.00,16700.00,0.13,-0.37,10.04,70.00,18.00,34.00,0.19,-0.12,0.11,164,188,172 ,
1396,144.00,-624.00,16792.00,0.09,-0.38,10.05,66.00,21.00,29.00,0.25,0.06,-0.13,164,200,179 ,
2096,112.00,-612.00,16952.00,0.07,-0.37,10.14,68.00,21.00,34.00,0.00,0.06,0.05,172,203,202 ,
2796,188.00,-636.00,16740.00,0.11,-0.38,10.10,65.00,19.00,33.00,0.00,-0.00,0.11,174,179,202 ,
3495,212.00,-644.00,16876.00,0.10,-0.38,10.12,66.00,19.00,32.00,0.00,-0.12,0.05,172,185,197 ,
4196,124.00,-512.00,16828.00,0.07,-0.32,10.05,65.00,21.00,32.00,-0.18,-0.00,-0.01,172,202,200 ,
4895,112.00,-540.00,16912.00,0.14,-0.39,10.10,67.00,20.00,30.00,-0.18,-0.00,-0.07,172,195,199 ,
5596,172.00,-584.00,16932.00,0.13,-0.39,10.12,68.00,20.00,32.00,0.07,0.06,-0.07,170,191,197 ,
6296,200.00,-584.00,16936.00,0.12,-0.33,10.05,66.00,16.00,30.00,-0.06,-0.12,-0.19,172,180,195 ,
6995,124.00,-564.00,16764.00,0.08,-0.33,10.04,65.00,17.00,33.00,-0.06,0.06,-0.07,173,206,205 ,
7696,116.00,-608.00,16868.00,0.08,-0.38,10.05,64.00,18.00,32.00,-0.12,-0.31,-0.01,174,202,205 ,
8395,176.00,-492.00,16896.00,0.10,-0.31,10.13,66.00,20.00,31.00,-0.06,0.06,-0.13,173,200,206 ,
9096,224.00,-556.00,16896.00,0.07,-0.34,10.12,66.00,19.00,32.00,0.07,-0.12,-0.07,174,193,205 ,
9795,132.00,-628.00,16948.00,0.09,-0.37,10.08,65.00,19.00,30.00,-0.06,-0.06,-0.01,176,190,205 ,
10495,156.00,-556.00,16920.00,0.04,-0.34,10.11,64.00,19.00,30.00,-0.12,-0.06,0.05,174,211,212 ,
button pressed
695,248.00,-632.00,16732.00,0.11,-0.34,10.05,71.00,14.00,32.00,0.13,0.30,-0.13,162,188,165 ,
1395,28.00,-524.00,16944.00,0.11,-0.33,10.06,65.00,23.00,31.00,-0.06,0.06,-0.01,162,250,187 ,
2095,216.00,-640.00,16868.00,0.12,-0.39,10.06,66.00,20.00,31.00,-0.06,0.12,-0.07,185,216,233 ,
2795,220.00,-556.00,16732.00,0.10,-0.36,10.03,62.00,18.00,33.00,-0.12,-0.00,0.05,182,186,221 ,
3496,160.00,-584.00,16740.00,0.15,-0.33,10.06,66.00,18.00,31.00,0.00,-0.25,0.05,179,195,219 ,
4195,128.00,-608.00,16852.00,0.09,-0.39,10.07,68.00,20.00,32.00,0.07,0.18,0.11,180,194,218 ,
4895,120.00,-604.00,16876.00,0.05,-0.38,10.00,66.00,22.00,29.00,0.00,0.18,-0.01,179,199,215 ,
5595,236.00,-492.00,16832.00,0.10,-0.36,10.08,65.00,16.00,34.00,0.07,-0.25,-0.01,177,206,218 ,
6295,112.00,-612.00,16976.00,0.11,-0.33,10.06,64.00,21.00,30.00,0.00,0.18,-0.13,177,206,218 ,
6995,168.00,-696.00,16896.00,0.11,-0.35,10.06,64.00,19.00,32.00,0.00,0.06,0.05,179,206,217 ,
7695,232.00,-500.00,16892.00,0.07,-0.31,10.10,67.00,19.00,34.00,0.00,-0.00,0.11,181,207,217 ,
8394,128.00,-580.00,17016.00,0.10,-0.36,10.09,66.00,19.00,32.00,0.00,0.12,0.11,177,209,218 ,
9095,80.00,-592.00,16828.00,0.05,-0.37,10.07,65.00,20.00,32.00,-0.06,0.12,-0.01,180,210,219 ,
9794,148.00,-624.00,16740.00,0.11,-0.31,10.05,67.00,16.00,30.00,0.00,-0.00,-0.01,177,208,218 ,
10495,104.00,-564.00,16784.00,0.07,-0.35,10.08,64.00,20.00,31.00,0.00,-0.19,-0.01,178,207,218 ,
button pressed
341,132.00,-632.00,16828.00,0.15,-0.33,10.06,65.00,20.00,31.00,-0.18,-0.12,0.05,163,200,167 ,7
439,120.00,-616.00,16848.00,0.12,-0.33,10.11,66.00,18.00,28.00,-0.06,0.06,-0.07,162,264,188 ,2860
490,196.00,-596.00,16720.00,0.21,-0.36,10.08,65.00,20.00,32.00,-0.06,0.12,0.05,158,423,257 ,30
1478,208.00,-636.00,16756.00,0.05,-0.33,10.03,68.00,18.00,32.00,0.25,-0.06,0.05,166,467,282 ,
2178,164.00,-664.00,16828.00,0.11,-0.34,10.08,66.00,20.00,34.00,-0.06,-0.06,0.05,178,577,362 ,
2877,200.00,-628.00,16848.00,0.14,-0.35,10.03,60.00,21.00,30.00,-0.30,-0.06,0.11,183,582,372 ,
3578,204.00,-608.00,16888.00,0.09,-0.33,10.04,64.00,20.00,32.00,-0.24,0.06,0.05,184,574,378 ,
4277,120.00,-556.00,16928.00,0.10,-0.30,10.17,65.00,20.00,30.00,0.13,-0.00,-0.19,187,181,239 ,
4978,164.00,-532.00,16688.00,0.12,-0.32,10.03,67.00,22.00,32.00,0.00,-0.00,0.11,187,182,236 ,
5677,144.00,-528.00,16760.00,0.06,-0.33,10.05,68.00,21.00,30.00,-0.12,-0.00,-0.07,186,183,233 ,
6377,144.00,-576.00,16824.00,0.13,-0.39,10.10,65.00,20.00,31.00,-0.12,-0.06,-0.01,185,185,232 ,
7077,68.00,-520.00,16800.00,0.09,-0.35,10.07,68.00,19.00,30.00,0.00,0.12,0.05,186,185,231 ,
7777,172.00,-580.00,16872.00,0.05,-0.37,10.14,67.00,20.00,35.00,-0.06,-0.12,0.05,185,187,229 ,
8478,204.00,-624.00,16868.00,0.11,-0.38,10.10,66.00,20.00,31.00,-0.12,0.06,-0.07,182,187,227 ,
9177,252.00,-660.00,16892.00,0.08,-0.38,10.15,65.00,19.00,31.00,0.00,-0.12,-0.01,183,183,222 ,
9877,164.00,-600.00,16776.00,0.10,-0.35,10.09,65.00,21.00,32.00,-0.06,0.06,0.05,182,184,220 ,
10577,200.00,-624.00,16896.00,0.11,-0.40,10.07,67.00,17.00,34.00,0.13,-0.12,0.17,181,185,217 ,
button pressed
696,136.00,-684.00,17028.00,0.13,-0.37,10.01,64.00,19.00,34.00,-0.06,-0.00,0.17,157,144,135 ,
1396,176.00,-624.00,16904.00,0.06,-0.34,10.10,64.00,18.00,32.00,-0.06,0.06,0.11,157,166,145 ,
2096,156.00,-604.00,16820.00,0.09,-0.32,10.07,66.00,23.00,30.00,0.00,0.18,0.11,158,160,150 ,
2795,200.00,-672.00,16760.00,0.08,-0.35,10.09,65.00,17.00,33.00,-0.06,0.12,0.11,161,158,155 ,
3496,104.00,-568.00,16800.00,0.11,-0.38,10.07,66.00,19.00,32.00,-0.06,-0.12,0.11,162,159,159 ,
4195,128.00,-608.00,16800.00,0.13,-0.33,10.11,66.00,19.00,32.00,0.13,-0.06,0.05,162,163,163 ,
4896,200.00,-540.00,16732.00,0.08,-0.32,10.08,67.00,19.00,30.00,-0.06,-0.00,-0.07,164,164,166 ,
5595,192.00,-576.00,16840.00,0.11,-0.34,10.07,66.00,21.00,33.00,-0.12,0.06,0.11,164,167,169 ,
6295,212.00,-556.00,16768.00,0.14,-0.33,10.00,64.00,17.00,30.00,-0.18,-0.00,0.05,164,163,170 ,
6995,188.00,-604.00,16700.00,0.11,-0.40,10.07,63.00,20.00,30.00,0.00,0.18,-0.01,165,167,173 ,
7695,152.00,-576.00,16712.00,0.11,-0.30,10.06,67.00,18.00,34.00,-0.12,-0.06,0.17,168,169,175 ,
8396,168.00,-476.00,16804.00,0.08,-0.39,10.11,64.00,19.00,34.00,-0.06,-0.12,0.05,167,170,178 ,
9095,100.00,-536.00,16884.00,0.06,-0.32,10.09,64.00,19.00,30.00,0.07,-0.06,-0.01,168,169,180 ,
9795,180.00,-488.00,16776.00,0.13,-0.32,10.07,69.00,20.00,31.00,0.00,-0.06,-0.01,168,172,183 ,
10495,180.00,-608.00,16912.00,0.12,-0.30,10.10,67.00,19.00,33.00,0.07,-0.06,-0.01,170,174,184 ,
button pressed
695,148.00,-536.00,16932.00,0.09,-0.34,10.05,67.00,19.00,34.00,0.25,-0.19,0.17,162,180,165 ,
1396,172.00,-632.00,16880.00,0.11,-0.30,10.06,68.00,21.00,31.00,0.00,0.24,0.11,161,191,169 ,
2095,268.00,-644.00,16928.00,0.14,-0.36,10.13,64.00,17.00,30.00,-0.18,-0.06,-0.19,169,196,195 ,
2796,128.00,-556.00,16888.00,0.04,-0.38,10.10,66.00,18.00,33.00,0.13,-0.12,-0.07,169,152,179 ,
3495,208.00,-484.00,16804.00,0.10,-0.32,10.09,65.00,19.00,32.00,-0.06,0.12,0.05,168,167,181 ,
4195,100.00,-608.00,16740.00,0.04,-0.37,10.04,66.00,16.00,29.00,0.00,-0.19,-0.07,168,173,181 ,
4895,184.00,-580.00,16904.00,0.07,-0.33,10.08,69.00,20.00,28.00,0.00,0.18,-0.07,169,175,184 ,
5595,196.00,-536.00,16892.00,0.12,-0.35,9.99,63.00,18.00,30.00,-0.18,-0.19,-0.01,167,177,186 ,
6295,204.00,-532.00,16812.00,0.13,-0.33,10.07,67.00,21.00,31.00,0.07,-0.06,0.11,169,180,188 ,
6995,168.00,-600.00,16912.00,0.04,-0.31,10.04,65.00,16.00,31.00,0.00,-0.25,0.05,171,184,191 ,
7694,88.00,-600.00,16808.00,0.07,-0.33,10.08,65.00,20.00,30.00,0.13,0.12,-0.01,170,185,193 ,
8395,208.00,-612.00,16868.00,0.10,-0.42,10.01,64.00,16.00,31.00,-0.18,-0.25,-0.13,173,186,196 ,
9095,144.00,-628.00,16856.00,0.11,-0.34,10.16,66.00,19.00,33.00,-0.12,-0.00,0.05,172,187,196 ,
9795,132.00,-592.00,16744.00,0.10,-0.37,10.09,67.00,19.00,29.00,0.00,-0.06,-0.07,173,188,197 ,
10495,232.00,-576.00,16812.00,0.10,-0.33,10.16,68.00,18.00,34.00,0.13,-0.12,0.24,173,189,199 ,
button pressed
697,188.00,-520.00,16780.00,0.07,-0.35,10.01,64.00,18.00,32.00,0.13,0.12,0.05,155,177,146 ,
1396,196.00,-504.00,16732.00,0.05,-0.33,10.06,65.00,19.00,33.00,-0.12,-0.06,-0.07,157,274,183 ,
2096,132.00,-552.00,16920.00,0.16,-0.38,10.05,67.00,18.00,32.00,0.00,-0.06,-0.01,181,230,235 ,
2796,188.00,-524.00,16844.00,0.13,-0.33,10.11,66.00,18.00,32.00,0.13,-0.00,-0.01,173,180,199 ,
3496,236.00,-532.00,16764.00,0.14,-0.31,10.01,65.00,18.00,32.00,0.07,-0.12,0.05,170,185,194 ,
4197,156.00,-588.00,16756.00,0.11,-0.34,10.02,67.00,24.00,34.00,0.00,0.18,0.11,171,186,192 ,
4896,144.00,-608.00,16708.00,0.14,-0.33,10.17,68.00,17.00,34.00,-0.06,-0.12,-0.01,170,180,190 ,
5596,132.00,-616.00,16848.00,0.12,-0.35,10.08,66.00,21.00,33.00,-0.12,0.12,0.11,169,185,191 ,
6296,172.00,-572.00,16916.00,0.15,-0.37,10.10,63.00,18.00,34.00,-0.18,-0.06,-0.01,169,172,186 ,
6996,200.00,-548.00,16864.00,0.10,-0.35,10.09,62.00,20.00,33.00,-0.18,0.12,0.05,169,174,187 ,
7696,216.00,-584.00,16864.00,0.05,-0.33,10.08,67.00,20.00,31.00,0.19,-0.06,-0.07,170,176,188 ,
8396,160.00,-568.00,16992.00,0.09,-0.37,10.07,67.00,20.00,32.00,-0.06,0.06,0.11,170,180,190 ,
9095,152.00,-520.00,16768.00,0.06,-0.31,10.11,67.00,22.00,35.00,-0.06,0.12,0.11,169,182,192 ,
9796,92.00,-596.00,16712.00,0.04,-0.38,10.01,64.00,19.00,32.00,-0.12,-0.00,0.11,172,184,193 ,
10495,220.00,-508.00,16944.00,0.10,-0.31,10.08,64.00,19.00,30.00,-0.06,-0.00,-0.01,173,188,196 ,
button pressed
696,244.00,-544.00,16684.00,0.07,-0.31,10.04,69.00,18.00,31.00,0.55,-0.12,0.05,160,193,167 ,
1396,208.00,-660.00,16808.00,0.10,-0.33,10.01,65.00,19.00,30.00,0.00,0.18,-0.13,161,195,171 ,
2096,152.00,-612.00,16808.00,0.06,-0.36,10.03,70.00,19.00,30.00,0.19,-0.06,-0.07,179,225,225 ,
2795,176.00,-584.00,16920.00,0.08,-0.40,10.08,66.00,21.00,32.00,-0.06,0.06,0.11,172,191,206 ,
3496,136.00,-604.00,16856.00,0.07,-0.36,10.10,66.00,17.00,28.00,0.00,-0.19,-0.13,169,187,196 ,
4195,68.00,-480.00,16884.00,0.02,-0.33,10.11,64.00,21.00,30.00,-0.12,-0.06,0.05,169,187,194 ,
4896,144.00,-572.00,16832.00,0.13,-0.35,9.98,68.00,18.00,34.00,0.00,-0.12,0.11,170,185,192 ,
5595,184.00,-612.00,16908.00,0.10,-0.36,10.14,65.00,18.00,34.00,-0.06,0.06,-0.01,169,184,192 ,
6295,148.00,-636.00,16780.00,0.12,-0.35,10.08,67.00,18.00,31.00,0.00,-0.19,-0.01,168,182,192 ,
6995,164.00,-588.00,16884.00,0.12,-0.33,10.09,66.00,17.00,29.00,0.07,0.06,0.05,169,183,192 ,
7695,84.00,-616.00,16636.00,0.01,-0.30,10.02,66.00,19.00,32.00,0.07,0.06,0.11,171,184,194 ,
8395,100.00,-640.00,16792.00,0.09,-0.37,10.09,67.00,20.00,30.00,-0.06,-0.12,-0.07,171,186,195 ,
9095,200.00,-660.00,16868.00,0.11,-0.39,10.00,67.00,17.00,29.00,0.07,-0.25,-0.13,170,190,197 ,
9795,136.00,-576.00,16844.00,0.08,-0.37,10.05,64.00,20.00,31.00,-0.12,0.18,-0.01,170,189,198 ,
10495,108.00,-584.00,16776.00,0.07,-0.36,9.99,64.00,19.00,30.00,-0.12,0.06,0.11,171,195,201 ,
button pressed
696,156.00,-568.00,16888.00,0.10,-0.36,10.10,70.00,18.00,29.00,0.13,-0.19,0.05,160,192,166 ,
1396,52.00,-656.00,16852.00,0.12,-0.36,10.07,64.00,19.00,30.00,-0.12,-0.06,0.11,159,167,160 ,
2096,152.00,-548.00,16840.00,0.12,-0.36,10.05,63.00,18.00,33.00,-0.12,0.12,0.11,176,215,216 ,
2795,252.00,-612.00,16956.00,0.13,-0.38,10.00,68.00,21.00,29.00,0.13,0.24,0.11,175,195,206 ,
3496,188.00,-612.00,16896.00,0.17,-0.32,10.10,64.00,19.00,32.00,0.00,-0.06,0.05,172,194,200 ,
4195,140.00,-616.00,16976.00,0.09,-0.40,10.12,65.00,20.00,32.00,-0.06,-0.00,-0.07,173,192,197 ,
4896,280.00,-604.00,16892.00,0.10,-0.35,10.11,65.00,16.00,28.00,-0.12,-0.00,-0.07,170,193,198 ,
5595,16.00,-572.00,16728.00,0.05,-0.36,9.97,64.00,19.00,33.00,-0.06,0.06,0.05,171,192,197 ,
6296,128.00,-616.00,16900.00,0.06,-0.37,10.10,70.00,21.00,33.00,0.25,-0.00,0.17,172,194,198 ,
6995,180.00,-564.00,16780.00,0.09,-0.31,10.10,64.00,17.00,29.00,0.00,-0.06,0.05,173,191,199 ,
7695,152.00,-568.00,16900.00,0.12,-0.39,10.05,61.00,19.00,30.00,0.00,-0.06,-0.01,174,191,198 ,
8396,176.00,-560.00,16896.00,0.09,-0.31,9.99,68.00,16.00,31.00,0.07,-0.00,-0.01,171,192,199 ,
9095,132.00,-600.00,16912.00,0.07,-0.35,10.06,66.00,20.00,30.00,0.00,-0.00,-0.01,172,193,199 ,
9796,60.00,-560.00,16912.00,0.07,-0.40,10.09,65.00,20.00,33.00,-0.06,0.18,0.11,173,192,198 ,
10495,60.00,-576.00,16904.00,0.06,-0.35,10.06,69.00,19.00,30.00,0.13,-0.06,0.05,174,193,200 ,
button pressed
695,204.00,-664.00,16716.00,0.05,-0.40,10.12,63.00,19.00,27.00,-0.30,-0.31,-0.25,164,184,169 ,
1395,236.00,-560.00,16892.00,0.10,-0.32,10.05,65.00,19.00,32.00,-0.12,-0.00,0.11,163,228,187 ,
2095,108.00,-512.00,16756.00,0.05,-0.31,10.04,66.00,20.00,34.00,0.07,0.06,0.05,176,216,217 ,
2795,220.00,-612.00,16820.00,0.09,-0.31,9.98,67.00,19.00,32.00,0.00,-0.06,-0.01,175,156,193 ,
3495,132.00,-608.00,16740.00,0.11,-0.36,10.12,63.00,21.00,33.00,-0.12,0.06,0.17,171,173,191 ,
4195,212.00,-504.00,16764.00,0.13,-0.31,10.12,66.00,19.00,28.00,0.00,0.06,-0.01,171,170,187 ,
4894,164.00,-500.00,16824.00,0.07,-0.31,10.06,66.00,19.00,31.00,-0.06,-0.12,0.05,170,178,188 ,
5595,108.00,-620.00,16976.00,0.07,-0.38,10.09,66.00,18.00,29.00,0.00,0.12,0.24,168,179,188 ,
6294,216.00,-532.00,16948.00,0.11,-0.34,10.05,68.00,19.00,32.00,0.07,-0.00,0.17,170,182,189 ,
6995,128.00,-644.00,16908.00,0.07,-0.36,10.13,66.00,23.00,32.00,-0.12,0.18,0.17,171,184,188 ,
7694,172.00,-552.00,16780.00,0.10,-0.33,10.00,65.00,20.00,33.00,0.19,0.12,0.11,168,182,188 ,
8394,72.00,-560.00,16648.00,0.05,-0.34,10.06,68.00,18.00,28.00,0.07,-0.19,-0.01,169,184,189 ,
9094,116.00,-472.00,16692.00,0.07,-0.28,9.99,66.00,20.00,32.00,0.07,-0.19,-0.01,171,188,191 ,
9794,124.00,-524.00,16756.00,0.11,-0.32,10.09,68.00,19.00,32.00,-0.12,-0.12,0.11,170,192,193 ,
10495,120.00,-528.00,16760.00,0.13,-0.33,10.04,66.00,19.00,29.00,-0.12,-0.00,-0.07,171,191,195 ,
button pressed
697,108.00,-472.00,17004.00,0.06,-0.30,10.04,68.00,18.00,37.00,0.07,0.12,0.05,163,176,175 ,
1396,112.00,-576.00,16984.00,0.09,-0.33,10.07,66.00,19.00,34.00,-0.12,-0.06,-0.01,163,191,181 ,
2096,220.00,-580.00,16864.00,0.11,-0.33,10.10,66.00,20.00,31.00,-0.18,-0.00,-0.01,163,182,180 ,
2796,128.00,-556.00,16836.00,0.12,-0.33,10.02,66.00,19.00,33.00,-0.06,0.12,0.17,164,164,177 ,
3496,244.00,-628.00,16852.00,0.14,-0.36,10.01,65.00,18.00,29.00,-0.06,0.06,-0.01,164,179,183 ,
4196,104.00,-656.00,16848.00,0.10,-0.32,10.13,63.00,17.00,32.00,-0.06,-0.00,-0.01,167,189,190 ,
4896,72.00,-560.00,16824.00,0.04,-0.32,9.99,66.00,22.00,30.00,0.00,0.18,0.11,165,192,192 ,
5595,148.00,-536.00,16676.00,0.10,-0.32,10.04,68.00,18.00,30.00,0.07,-0.00,-0.07,168,193,194 ,
6296,128.00,-512.00,16832.00,0.06,-0.36,10.18,67.00,19.00,32.00,0.07,-0.00,0.05,167,193,195 ,
6995,156.00,-520.00,16800.00,0.06,-0.34,10.11,67.00,18.00,30.00,0.00,-0.19,-0.19,168,194,196 ,
7696,136.00,-624.00,16848.00,0.12,-0.38,10.07,67.00,17.00,33.00,-0.18,-0.00,0.11,169,194,197 ,
8396,156.00,-560.00,16612.00,0.09,-0.40,10.04,65.00,17.00,30.00,-0.12,-0.00,-0.07,167,194,198 ,
9095,160.00,-616.00,16868.00,0.12,-0.41,10.01,66.00,18.00,34.00,-0.24,-0.00,-0.07,170,194,198 ,
9796,48.00,-608.00,16824.00,0.10,-0.38,10.02,69.00,19.00,31.00,0.13,-0.06,-0.01,168,195,198 ,
10495,124.00,-580.00,16728.00,0.07,-0.35,10.01,66.00,18.00,30.00,-0.12,0.06,-0.13,168,194,198 ,
button pressed
696,120.00,-576.00,16764.00,0.08,-0.33,10.08,65.00,20.00,32.00,0.07,-0.06,-0.07,168,182,194 ,
1395,92.00,-540.00,16932.00,0.10,-0.35,10.09,64.00,20.00,31.00,0.00,0.12,0.11,165,185,194 ,
2096,212.00,-532.00,16848.00,0.10,-0.34,10.11,70.00,20.00,32.00,0.07,-0.12,-0.07,187,226,259 ,
2795,112.00,-524.00,16720.00,0.12,-0.33,10.10,64.00,18.00,30.00,-0.06,0.06,0.17,183,166,227 ,
3495,208.00,-496.00,16864.00,0.12,-0.33,10.03,66.00,19.00,32.00,0.13,-0.06,0.17,175,183,220 ,
4195,176.00,-624.00,16776.00,0.08,-0.36,10.07,66.00,22.00,32.00,0.07,0.12,-0.01,175,186,214 ,
4895,72.00,-544.00,16976.00,0.08,-0.37,10.10,64.00,18.00,31.00,-0.06,-0.06,-0.13,173,190,209 ,
5595,188.00,-644.00,16912.00,0.12,-0.35,10.11,65.00,18.00,31.00,-0.18,-0.06,0.05,172,185,209 ,
6295,60.00,-660.00,16824.00,0.04,-0.39,10.06,64.00,21.00,30.00,0.00,0.06,-0.07,173,190,209 ,
6994,180.00,-644.00,16888.00,0.03,-0.33,10.08,68.00,18.00,32.00,0.19,-0.12,-0.07,171,193,210 ,
7695,52.00,-596.00,16852.00,-0.00,-0.30,10.08,67.00,17.00,31.00,0.13,-0.12,0.05,174,197,213 ,
8394,108.00,-588.00,16900.00,0.05,-0.29,10.11,65.00,17.00,31.00,0.00,-0.00,-0.07,173,198,215 ,
9095,120.00,-592.00,16900.00,0.07,-0.34,10.10,64.00,20.00,32.00,0.00,0.06,0.30,174,197,215 ,
9794,188.00,-604.00,16776.00,0.10,-0.33,10.09,66.00,18.00,32.00,-0.06,-0.06,-0.01,172,197,216 ,
10495,128.00,-604.00,16900.00,0.04,-0.33,10.08,66.00,18.00,33.00,-0.12,-0.00,-0.01,174,198,216 ,
button pressed
696,140.00,-552.00,16920.00,0.05,-0.34,10.08,65.00,19.00,34.00,-0.06,-0.12,0.05,160,173,173 ,
1396,92.00,-556.00,16848.00,0.06,-0.35,10.10,67.00,21.00,29.00,0.00,-0.06,0.11,161,181,179 ,
2096,196.00,-668.00,16840.00,0.05,-0.39,10.05,63.00,19.00,28.00,-0.12,0.06,0.05,165,205,196 ,
2795,136.00,-624.00,16848.00,0.10,-0.36,10.08,63.00,19.00,31.00,-0.06,-0.06,0.05,167,174,192 ,
3496,92.00,-592.00,16860.00,0.06,-0.33,10.13,65.00,20.00,30.00,0.00,0.06,-0.07,166,162,190 ,
4195,24.00,-612.00,16868.00,0.05,-0.36,10.14,67.00,21.00,31.00,0.13,-0.06,-0.01,167,173,193 ,
4896,156.00,-600.00,16892.00,0.08,-0.34,10.07,68.00,18.00,31.00,0.07,-0.06,-0.07,167,176,196 ,
5595,228.00,-584.00,16772.00,0.11,-0.38,10.07,64.00,21.00,32.00,0.00,-0.06,-0.01,167,182,196 ,
6295,100.00,-632.00,16848.00,0.11,-0.38,10.06,68.00,21.00,32.00,0.00,0.12,0.17,167,184,197 ,
6996,156.00,-616.00,16888.00,0.10,-0.40,10.16,65.00,17.00,31.00,0.00,0.06,-0.01,167,186,197 ,
7695,152.00,-560.00,17024.00,0.12,-0.32,10.09,65.00,14.00,30.00,0.00,-0.06,-0.07,166,186,197 ,
8396,80.00,-616.00,16764.00,0.13,-0.34,10.11,65.00,21.00,31.00,-0.12,0.06,-0.13,168,188,197 ,
9095,172.00,-564.00,16780.00,0.06,-0.36,9.99,66.00,20.00,35.00,0.00,0.18,0.17,167,188,196 ,
9795,60.00,-552.00,16936.00,0.04,-0.33,10.13,64.00,16.00,31.00,0.07,-0.12,0.11,167,189,196 ,
10495,144.00,-588.00,16872.00,0.06,-0.37,10.10,65.00,20.00,31.00,-0.12,0.06,0.05,167,190,198 ,
button pressed
697,140.00,-548.00,16916.00,0.07,-0.33,9.99,68.00,20.00,29.00,0.00,-0.00,0.11,163,188,178 ,
1396,112.00,-660.00,16772.00,0.08,-0.34,10.06,66.00,17.00,33.00,0.00,-0.06,0.11,162,179,173 ,
2096,260.00,-604.00,16828.00,0.15,-0.30,10.10,67.00,20.00,35.00,0.13,-0.12,0.11,186,233,256 ,
2796,176.00,-604.00,16916.00,0.10,-0.32,10.17,66.00,22.00,33.00,0.07,-0.00,-0.01,184,181,236 ,
3496,228.00,-524.00,16844.00,0.12,-0.34,10.15,64.00,19.00,32.00,-0.24,-0.00,-0.07,180,186,226 ,
4196,52.00,-548.00,16816.00,0.04,-0.34,10.07,65.00,20.00,34.00,0.07,-0.00,0.11,178,183,218 ,
4896,108.00,-508.00,16896.00,0.06,-0.36,10.07,67.00,18.00,32.00,-0.12,-0.19,0.11,176,191,216 ,
5595,232.00,-532.00,16796.00,0.07,-0.33,10.05,65.00,20.00,31.00,-0.06,0.18,0.17,175,174,208 ,
6296,100.00,-572.00,17008.00,0.07,-0.38,10.12,68.00,17.00,32.00,-0.06,0.06,0.05,175,180,206 ,
6996,144.00,-580.00,16772.00,0.10,-0.37,10.02,66.00,21.00,30.00,0.00,0.06,-0.01,173,180,204 ,
7696,112.00,-588.00,16956.00,0.05,-0.34,10.15,68.00,18.00,30.00,0.00,-0.19,-0.25,174,183,202 ,
8396,124.00,-604.00,16816.00,0.08,-0.32,10.08,65.00,19.00,28.00,0.07,0.06,-0.07,173,184,203 ,
9095,148.00,-600.00,16812.00,0.07,-0.38,10.06,65.00,19.00,32.00,0.00,-0.06,-0.01,174,182,202 ,
9796,184.00,-612.00,16876.00,0.12,-0.35,10.05,65.00,18.00,30.00,-0.06,-0.19,-0.07,173,190,205 ,
10495,120.00,-528.00,16936.00,0.07,-0.35,10.10,65.00,15.00,33.00,-0.18,-0.25,0.05,174,186,204 ,
button pressed
695,212.00,-572.00,16840.00,0.13,-0.34,10.07,64.00,18.00,31.00,-0.18,-0.12,-0.07,165,190,175 ,
1395,116.00,-616.00,16836.00,0.05,-0.32,10.15,65.00,21.00,30.00,0.07,0.06,0.05,165,221,187 ,
2095,184.00,-584.00,16920.00,0.11,-0.31,10.10,66.00,23.00,30.00,0.07,0.18,-0.01,195,241,276 ,
2795,168.00,-588.00,16844.00,0.11,-0.35,10.07,67.00,18.00,34.00,0.07,0.12,0.05,191,204,248 ,
3494,200.00,-516.00,16724.00,0.08,-0.34,10.05,66.00,20.00,29.00,0.07,-0.00,-0.19,183,200,233 ,
4195,244.00,-624.00,16756.00,0.15,-0.34,9.97,66.00,20.00,30.00,-0.06,-0.00,-0.13,183,193,227 ,
4895,96.00,-596.00,16872.00,0.10,-0.37,10.03,68.00,18.00,31.00,-0.06,0.06,-0.01,181,194,223 ,
5595,136.00,-584.00,16932.00,0.07,-0.31,10.12,66.00,18.00,29.00,0.00,0.12,-0.01,180,195,220 ,
6295,196.00,-692.00,16740.00,0.12,-0.40,10.08,65.00,19.00,33.00,-0.06,0.06,-0.01,180,183,212 ,
6994,40.00,-548.00,16844.00,0.11,-0.32,10.03,66.00,20.00,34.00,-0.12,0.06,0.05,178,198,214 ,
7695,104.00,-512.00,16872.00,0.13,-0.31,10.12,66.00,19.00,30.00,0.00,0.12,0.11,178,196,211 ,
8394,228.00,-608.00,16784.00,0.10,-0.33,10.03,66.00,18.00,33.00,-0.12,-0.00,-0.01,176,184,204 ,
9095,100.00,-528.00,16872.00,0.06,-0.32,10.09,68.00,17.00,29.00,0.00,0.06,-0.13,175,188,203 ,
9794,112.00,-552.00,16828.00,0.05,-0.37,10.12,65.00,17.00,32.00,0.00,-0.12,0.11,172,187,202 ,
10494,28.00,-596.00,17012.00,0.08,-0.34,10.09,66.00,17.00,32.00,0.00,-0.00,0.11,173,195,204 ,
button pressed
696,168.00,-508.00,16900.00,0.06,-0.35,10.11,65.00,19.00,31.00,0.00,0.06,0.05,168,198,188 ,
1395,108.00,-628.00,16892.00,0.06,-0.32,10.00,64.00,19.00,31.00,0.13,-0.00,-0.19,165,193,184 ,
2096,164.00,-620.00,16824.00,0.12,-0.36,10.12,67.00,18.00,33.00,0.19,-0.00,-0.01,180,204,218 ,
2796,112.00,-572.00,16836.00,0.05,-0.37,10.08,63.00,17.00,30.00,-0.24,-0.12,0.05,179,197,224 ,
3495,120.00,-612.00,16952.00,0.05,-0.34,10.13,69.00,19.00,33.00,0.25,-0.12,0.24,178,196,218 ,
4196,196.00,-520.00,16872.00,0.14,-0.31,10.00,63.00,22.00,31.00,-0.12,0.12,0.05,177,197,216 ,
4895,112.00,-600.00,16800.00,0.06,-0.39,10.03,66.00,19.00,31.00,0.07,0.06,0.05,177,189,211 ,
5596,196.00,-692.00,16908.00,0.13,-0.39,10.15,69.00,20.00,33.00,0.00,-0.19,0.11,177,184,207 ,
6295,184.00,-556.00,16900.00,0.12,-0.32,10.07,65.00,22.00,32.00,0.07,-0.00,-0.01,176,185,205 ,
6996,116.00,-540.00,16552.00,0.10,-0.38,9.99,66.00,20.00,32.00,0.07,0.12,0.05,172,185,203 ,
7695,172.00,-628.00,16832.00,0.08,-0.34,10.16,67.00,21.00,35.00,0.00,0.06,0.11,174,188,201 ,
8395,108.00,-548.00,16920.00,0.10,-0.34,10.10,63.00,21.00,33.00,0.00,0.12,-0.01,173,191,200 ,
9095,196.00,-600.00,16784.00,0.14,-0.33,10.05,68.00,17.00,28.00,0.13,-0.19,-0.19,175,189,200 ,
9795,128.00,-592.00,16764.00,0.11,-0.34,10.09,65.00,19.00,32.00,-0.06,-0.06,0.05,174,188,203 ,
10495,192.00,-560.00,16792.00,0.08,-0.34,10.12,67.00,18.00,33.00,0.07,-0.25,-0.01,174,188,204 ,
button pressed
695,140.00,-520.00,16872.00,0.09,-0.36,10.10,67.00,19.00,29.00,0.07,-0.12,-0.01,169,237,200 ,
1396,68.00,-468.00,16980.00,0.07,-0.37,10.21,66.00,21.00,33.00,0.00,-0.00,-0.01,171,264,214 ,
2095,56.00,-584.00,16920.00,0.09,-0.32,10.16,66.00,19.00,31.00,0.00,-0.06,-0.07,173,202,200 ,
2795,132.00,-560.00,16724.00,0.06,-0.33,10.01,66.00,18.00,33.00,0.00,-0.00,0.17,193,250,258 ,
3495,140.00,-588.00,16868.00,0.10,-0.33,10.07,65.00,22.00,34.00,0.00,0.12,-0.01,192,191,246 ,
4195,80.00,-596.00,16812.00,0.09,-0.35,9.99,66.00,19.00,30.00,-0.18,-0.19,-0.01,186,193,237 ,
4895,192.00,-632.00,16816.00,0.16,-0.33,10.06,62.00,19.00,31.00,0.00,-0.00,0.05,185,188,227 ,
5595,228.00,-492.00,16852.00,0.10,-0.34,10.07,62.00,18.00,30.00,-0.18,0.06,-0.01,184,178,219 ,
6295,184.00,-652.00,16824.00,0.11,-0.39,10.11,68.00,17.00,34.00,0.00,-0.06,0.17,181,189,220 ,
6995,52.00,-556.00,16748.00,0.04,-0.34,10.00,63.00,19.00,28.00,-0.18,0.06,-0.07,182,186,215 ,
7695,184.00,-640.00,16752.00,0.13,-0.35,10.07,65.00,20.00,32.00,-0.24,-0.12,0.11,181,181,213 ,
8395,168.00,-612.00,16880.00,0.15,-0.33,10.19,64.00,19.00,31.00,-0.06,-0.00,-0.07,178,175,208 ,
9095,116.00,-472.00,16764.00,0.06,-0.29,10.09,66.00,19.00,30.00,0.13,-0.00,-0.19,178,176,206 ,
9794,256.00,-568.00,16728.00,0.09,-0.33,10.11,66.00,20.00,29.00,0.07,0.06,0.05,177,178,202 ,
10495,160.00,-584.00,16856.00,0.07,-0.34,10.17,66.00,19.00,34.00,-0.12,0.06,0.11,176,179,200 ,
button pressed
695,228.00,-588.00,16804.00,0.08,-0.35,10.01,64.00,18.00,32.00,-0.12,-0.00,0.11,165,181,173 ,
1395,88.00,-608.00,16628.00,0.05,-0.36,9.95,67.00,21.00,35.00,-0.12,0.12,0.05,165,192,180 ,
2095,88.00,-548.00,16880.00,0.08,-0.35,10.09,65.00,18.00,30.00,-0.24,-0.00,-0.07,167,274,208 ,
2795,268.00,-648.00,16940.00,0.08,-0.37,10.09,68.00,19.00,32.00,0.00,0.12,-0.01,191,262,269 ,
3495,124.00,-560.00,16880.00,0.03,-0.35,10.09,68.00,19.00,32.00,0.00,0.06,0.05,183,180,223 ,
4195,216.00,-556.00,16756.00,0.12,-0.32,10.04,66.00,21.00,34.00,0.00,0.06,0.24,180,183,215 ,
4894,108.00,-604.00,16904.00,0.11,-0.33,10.08,65.00,19.00,31.00,0.07,-0.12,-0.01,180,184,213 ,
5595,216.00,-560.00,16832.00,0.11,-0.31,10.12,67.00,19.00,32.00,0.00,0.12,0.11,179,183,210 ,
6294,72.00,-552.00,16900.00,0.07,-0.36,10.04,69.00,20.00,32.00,0.19,0.06,0.11,178,181,209 ,
6995,116.00,-572.00,16892.00,0.12,-0.34,10.08,67.00,19.00,33.00,0.07,-0.00,-0.25,179,178,208 ,
7694,92.00,-560.00,16728.00,0.10,-0.37,10.11,64.00,19.00,32.00,-0.06,-0.06,-0.01,177,183,208 ,
8394,176.00,-592.00,16868.00,0.11,-0.32,10.03,65.00,21.00,30.00,0.07,0.12,-0.07,177,185,207 ,
9094,92.00,-576.00,16736.00,0.05,-0.36,10.11,62.00,19.00,33.00,-0.18,0.06,-0.01,177,185,205 ,
9794,228.00,-552.00,16920.00,0.11,-0.34,10.11,66.00,19.00,31.00,0.13,0.06,0.05,176,187,204 ,
10495,184.00,-596.00,16900.00,0.11,-0.36,10.11,68.00,16.00,32.00,0.07,-0.06,0.24,177,186,202 ,
button pressed
695,60.00,-568.00,16896.00,0.03,-0.42,10.13,64.00,16.00,29.00,-0.18,-0.12,0.05,161,188,162 ,
1396,148.00,-616.00,16860.00,0.08,-0.35,10.03,65.00,19.00,31.00,0.07,-0.00,-0.07,161,229,179 ,
2096,244.00,-580.00,16832.00,0.11,-0.40,10.03,66.00,19.00,31.00,0.19,-0.00,0.05,181,224,234 ,
2795,132.00,-508.00,16916.00,0.08,-0.35,10.14,66.00,16.00,31.00,0.00,-0.06,-0.01,182,185,216 ,
3496,72.00,-552.00,16780.00,0.07,-0.34,10.08,67.00,19.00,30.00,0.07,0.06,0.11,175,101,182 ,
4195,72.00,-600.00,16928.00,0.01,-0.32,10.10,65.00,18.00,33.00,-0.06,0.06,0.05,174,164,194 ,
4896,140.00,-576.00,16732.00,0.10,-0.34,10.14,65.00,17.00,32.00,-0.18,0.06,-0.01,175,169,194 ,
5595,160.00,-552.00,16844.00,0.13,-0.33,10.09,66.00,15.00,32.00,0.07,-0.06,-0.01,173,178,194 ,
6295,236.00,-620.00,16804.00,0.14,-0.33,10.08,64.00,18.00,29.00,-0.18,-0.06,0.11,171,184,194 ,
6995,164.00,-544.00,16908.00,0.03,-0.32,10.04,66.00,17.00,30.00,-0.06,-0.12,-0.13,171,182,192 ,
7695,104.00,-564.00,16856.00,0.16,-0.41,10.07,68.00,20.00,31.00,0.19,0.18,-0.13,171,182,190 ,
8395,108.00,-616.00,16852.00,0.05,-0.32,10.12,66.00,18.00,33.00,-0.12,-0.00,0.05,170,181,189 ,
9095,68.00,-676.00,16836.00,0.08,-0.33,10.09,66.00,19.00,29.00,-0.12,0.24,-0.01,167,180,186 ,
9794,172.00,-520.00,16796.00,0.11,-0.35,10.09,64.00,17.00,32.00,-0.06,-0.25,-0.07,167,182,186 ,
10495,52.00,-524.00,16884.00,0.06,-0.32,10.05,63.00,20.00,32.00,0.00,0.06,-0.01,168,182,187 ,
button pressed
697,160.00,-560.00,16956.00,0.05,-0.39,10.09,69.00,18.00,33.00,0.00,-0.12,0.11,160,184,163 ,
1396,48.00,-580.00,16888.00,0.07,-0.34,10.00,62.00,17.00,32.00,-0.18,-0.00,-0.01,162,267,199 ,
2096,152.00,-588.00,16924.00,0.11,-0.37,10.05,66.00,16.00,31.00,0.13,-0.06,0.11,197,273,291 ,
2796,204.00,-624.00,16908.00,0.08,-0.38,10.10,68.00,18.00,29.00,-0.12,-0.00,-0.07,189,203,250 ,
3496,172.00,-476.00,16868.00,0.08,-0.34,10.14,63.00,23.00,32.00,-0.06,0.12,-0.19,185,198,238 ,
4196,212.00,-624.00,16944.00,0.13,-0.37,10.14,66.00,18.00,32.00,0.07,0.06,-0.01,180,199,228 ,
4896,184.00,-636.00,16872.00,0.15,-0.33,10.08,64.00,20.00,31.00,-0.12,0.12,-0.13,178,200,225 ,
5595,-28.00,-540.00,16744.00,0.04,-0.31,10.01,69.00,19.00,29.00,0.07,-0.00,0.05,178,184,217 ,
6296,192.00,-644.00,16800.00,0.15,-0.34,10.06,66.00,17.00,30.00,-0.18,-0.06,-0.13,178,192,216 ,
6995,184.00,-624.00,16736.00,0.14,-0.37,10.04,69.00,21.00,30.00,0.07,0.12,-0.01,176,190,213 ,
7696,196.00,-532.00,16780.00,0.09,-0.31,10.01,65.00,19.00,32.00,-0.06,0.06,0.05,174,194,211 ,
8395,136.00,-640.00,16736.00,0.08,-0.38,10.01,67.00,16.00,33.00,-0.06,-0.00,0.17,176,190,208 ,
9095,172.00,-584.00,16904.00,0.07,-0.31,10.21,63.00,16.00,33.00,-0.12,-0.06,0.05,173,187,208 ,
9795,180.00,-496.00,16788.00,0.11,-0.31,10.07,68.00,19.00,32.00,0.00,0.06,0.05,174,194,208 ,
10495,76.00,-612.00,16904.00,0.07,-0.34,10.15,68.00,18.00,31.00,-0.06,0.06,0.11,174,199,209 ,
button pressed
696,72.00,-608.00,16860.00,0.08,-0.35,10.11,66.00,21.00,30.00,0.13,-0.00,-0.01,162,198,170 ,
1396,120.00,-604.00,16708.00,0.12,-0.37,10.08,64.00,18.00,33.00,-0.06,-0.12,0.11,162,218,181 ,
2095,64.00,-556.00,16940.00,0.05,-0.34,10.03,67.00,17.00,31.00,0.07,0.06,-0.07,195,253,280 ,
2796,236.00,-620.00,16976.00,0.07,-0.33,10.02,66.00,17.00,33.00,0.07,-0.19,0.05,192,194,252 ,
3495,276.00,-476.00,16884.00,0.10,-0.35,10.08,66.00,20.00,36.00,-0.06,0.06,-0.07,184,203,236 ,
4196,144.00,-548.00,16864.00,0.06,-0.32,10.16,65.00,20.00,31.00,-0.12,-0.00,0.05,184,200,229 ,
4896,60.00,-552.00,16928.00,0.05,-0.29,10.07,66.00,18.00,32.00,0.00,0.06,-0.01,184,200,222 ,
5595,60.00,-576.00,16832.00,0.06,-0.32,10.03,65.00,19.00,31.00,-0.06,-0.06,-0.01,182,199,220 ,
6296,120.00,-628.00,16924.00,0.05,-0.32,10.09,66.00,22.00,33.00,-0.12,0.18,0.05,179,197,215 ,
6995,248.00,-604.00,16864.00,0.08,-0.35,10.10,65.00,20.00,32.00,-0.12,0.06,-0.01,179,199,212 ,
7696,224.00,-572.00,16852.00,0.05,-0.34,10.05,66.00,20.00,32.00,-0.12,-0.12,-0.01,176,184,205 ,
8395,168.00,-604.00,16876.00,0.09,-0.39,10.15,66.00,17.00,31.00,-0.06,-0.00,-0.01,176,177,202 ,
9096,168.00,-540.00,16944.00,0.04,-0.34,10.10,65.00,19.00,30.00,-0.06,-0.06,-0.01,175,177,200 ,
9795,184.00,-564.00,16896.00,0.06,-0.34,9.99,62.00,20.00,32.00,-0.18,-0.06,-0.01,176,194,204 ,
10495,224.00,-712.00,16808.00,0.10,-0.34,10.11,67.00,20.00,31.00,-0.12,-0.00,-0.13,177,196,205 ,
button pressed
695,100.00,-516.00,17048.00,0.07,-0.31,10.15,64.00,18.00,31.00,0.13,-0.06,0.11,168,159,184 ,
1396,84.00,-536.00,16776.00,0.05,-0.38,10.01,66.00,19.00,31.00,0.19,-0.06,0.17,165,175,184 ,
2095,160.00,-604.00,16788.00,0.06,-0.34,10.02,68.00,20.00,31.00,0.13,-0.00,-0.13,172,201,204 ,
2796,248.00,-656.00,17000.00,0.16,-0.40,10.13,65.00,20.00,35.00,-0.18,-0.00,0.11,171,177,195 ,
3496,132.00,-592.00,16748.00,0.11,-0.39,10.02,64.00,18.00,34.00,-0.18,-0.06,0.05,167,179,195 ,
4195,172.00,-540.00,16772.00,0.07,-0.38,10.02,63.00,18.00,30.00,0.07,-0.00,0.05,169,182,196 ,
4896,324.00,-544.00,16856.00,0.15,-0.32,9.95,64.00,17.00,31.00,-0.06,-0.19,0.11,170,184,196 ,
5595,132.00,-652.00,16976.00,0.08,-0.38,10.13,63.00,17.00,33.00,-0.06,-0.06,-0.01,168,183,197 ,
6296,104.00,-516.00,16772.00,0.07,-0.31,10.14,65.00,16.00,29.00,0.00,-0.06,-0.07,168,189,198 ,
6995,176.00,-492.00,16888.00,0.14,-0.33,10.22,66.00,20.00,34.00,0.13,0.12,0.05,168,185,199 ,
7695,248.00,-552.00,16836.00,0.12,-0.36,10.06,67.00,17.00,31.00,-0.24,-0.00,0.11,169,187,201 ,
8395,128.00,-644.00,16848.00,0.04,-0.37,10.10,65.00,18.00,30.00,-0.06,-0.12,0.05,168,188,200 ,
9095,12.00,-448.00,16916.00,0.05,-0.28,10.14,68.00,18.00,32.00,0.00,-0.06,-0.01,170,190,201 ,
9795,136.00,-604.00,16832.00,0.10,-0.40,10.01,68.00,19.00,33.00,0.00,-0.12,0.05,170,190,203 ,
10495,112.00,-652.00,16836.00,0.10,-0.34,10.06,67.00,18.00,33.00,0.00,-0.19,0.05,173,191,204 ,
button pressed
696,168.00,-540.00,16800.00,0.11,-0.34,10.03,65.00,19.00,31.00,0.13,-0.00,-0.07,163,218,193 ,
1396,180.00,-596.00,16880.00,0.09,-0.38,10.08,66.00,20.00,34.00,-0.06,0.18,0.17,166,230,204 ,
2096,140.00,-588.00,16788.00,0.05,-0.37,10.10,67.00,21.00,31.00,0.13,0.06,-0.07,170,240,223 ,
2795,156.00,-700.00,16760.00,0.10,-0.41,10.08,64.00,22.00,31.00,-0.12,0.12,0.05,194,235,282 ,
3496,276.00,-600.00,16960.00,0.07,-0.39,10.08,65.00,20.00,35.00,0.00,-0.00,0.05,186,234,269 ,
4195,32.00,-564.00,16792.00,0.08,-0.28,10.00,67.00,23.00,28.00,-0.06,0.06,-0.01,185,232,260 ,
4896,176.00,-464.00,16832.00,0.11,-0.34,10.10,64.00,19.00,30.00,-0.18,-0.06,-0.01,182,228,255 ,
5595,148.00,-604.00,16964.00,0.09,-0.37,10.17,66.00,21.00,32.00,0.00,-0.00,-0.01,182,232,251 ,
6296,192.00,-592.00,16872.00,0.09,-0.34,10.11,63.00,18.00,33.00,-0.12,-0.06,-0.01,182,229,248 ,
6995,140.00,-592.00,16900.00,0.11,-0.42,10.11,62.00,19.00,31.00,0.07,0.18,0.05,184,223,244 ,
7695,184.00,-540.00,16744.00,0.11,-0.34,10.05,64.00,21.00,32.00,-0.12,0.18,-0.01,182,226,243 ,
8396,120.00,-572.00,16764.00,0.08,-0.39,10.07,64.00,18.00,32.00,0.07,0.06,0.05,180,229,244 ,
9095,144.00,-484.00,16808.00,0.10,-0.32,10.15,66.00,18.00,30.00,-0.12,-0.00,0.11,180,218,237 ,
9796,64.00,-504.00,16856.00,0.05,-0.32,10.11,64.00,18.00,32.00,-0.18,0.06,-0.07,179,222,236 ,
10495,188.00,-552.00,16704.00,0.15,-0.33,10.16,67.00,17.00,31.00,0.13,-0.00,-0.07,180,215,232 ,
button pressed
697,52.00,-596.00,16828.00,0.06,-0.35,10.05,65.00,20.00,33.00,0.07,-0.00,-0.01,162,170,173 ,
1397,76.00,-552.00,16808.00,0.07,-0.35,10.12,64.00,21.00,32.00,0.13,-0.00,-0.01,163,182,182 ,
2097,192.00,-472.00,16744.00,0.11,-0.27,10.05,65.00,17.00,29.00,-0.12,0.06,-0.07,181,176,222 ,
2797,128.00,-520.00,16876.00,0.06,-0.34,10.12,66.00,19.00,30.00,0.00,-0.06,-0.07,177,155,209 ,
3496,188.00,-560.00,16856.00,0.15,-0.35,10.00,66.00,17.00,32.00,0.07,-0.00,-0.13,177,172,211 ,
4197,128.00,-604.00,16880.00,0.03,-0.34,10.15,66.00,19.00,34.00,-0.30,-0.06,0.11,173,173,209 ,
4896,108.00,-560.00,16776.00,0.09,-0.32,10.05,64.00,16.00,31.00,-0.06,-0.06,-0.07,174,180,209 ,
5597,80.00,-556.00,16788.00,0.08,-0.35,10.05,66.00,21.00,30.00,-0.12,0.18,-0.01,172,189,212 ,
6296,224.00,-636.00,16928.00,0.11,-0.35,10.07,70.00,18.00,32.00,0.13,-0.00,-0.01,175,185,210 ,
6996,176.00,-592.00,16876.00,0.11,-0.33,10.10,68.00,17.00,28.00,0.00,-0.00,-0.19,173,184,210 ,
7696,156.00,-632.00,16812.00,0.15,-0.36,10.05,69.00,15.00,33.00,0.13,-0.25,0.11,173,183,209 ,
8396,168.00,-512.00,16836.00,0.10,-0.31,10.07,65.00,24.00,32.00,0.00,0.18,0.11,174,184,208 ,
9096,228.00,-544.00,16904.00,0.10,-0.36,10.07,65.00,20.00,31.00,0.00,-0.06,-0.01,173,186,211 ,
9796,244.00,-508.00,16900.00,0.11,-0.28,10.05,66.00,18.00,32.00,0.07,-0.00,0.17,174,186,211 ,
10495,212.00,-496.00,16796.00,0.12,-0.27,10.03,64.00,18.00,31.00,0.00,0.06,0.05,175,189,212 ,
button pressed
696,188.00,-556.00,16976.00,0.09,-0.43,10.13,63.00,18.00,31.00,-0.12,-0.00,-0.07,163,185,180 ,
1397,116.00,-640.00,16756.00,0.07,-0.37,10.04,65.00,22.00,33.00,0.00,-0.06,-0.07,164,155,175 ,
2096,168.00,-596.00,16900.00,0.08,-0.38,10.08,67.00,18.00,28.00,0.00,0.06,-0.13,179,259,246 ,
2797,84.00,-548.00,16840.00,0.04,-0.31,10.05,66.00,20.00,31.00,0.07,-0.06,-0.07,174,171,214 ,
3496,100.00,-624.00,17000.00,0.10,-0.42,10.06,67.00,22.00,34.00,0.13,0.12,0.11,174,166,207 ,
4196,108.00,-584.00,16932.00,-0.01,-0.38,10.10,65.00,21.00,31.00,0.07,0.12,0.11,172,176,206 ,
4896,72.00,-528.00,16800.00,0.06,-0.33,10.05,65.00,19.00,31.00,-0.12,-0.00,-0.07,170,168,202 ,
5596,172.00,-588.00,16856.00,0.10,-0.36,10.02,67.00,23.00,33.00,-0.12,0.06,0.05,172,168,200 ,
6296,108.00,-592.00,16868.00,0.13,-0.30,10.08,65.00,18.00,32.00,0.00,-0.00,-0.01,170,185,203 ,
6996,108.00,-632.00,16924.00,0.07,-0.42,10.03,66.00,22.00,30.00,0.00,0.18,-0.01,170,187,203 ,
7695,172.00,-528.00,16800.00,0.11,-0.34,10.04,64.00,15.00,31.00,-0.06,-0.12,-0.07,171,190,202 ,
8396,192.00,-552.00,16936.00,0.10,-0.36,10.16,66.00,15.00,30.00,-0.06,-0.00,-0.01,171,192,204 ,
9096,96.00,-536.00,16752.00,-0.02,-0.30,10.05,66.00,21.00,31.00,-0.06,-0.00,-0.07,170,190,204 ,
9796,44.00,-496.00,16880.00,0.05,-0.32,10.11,67.00,19.00,30.00,-0.06,0.06,-0.13,170,191,204 ,
10496,200.00,-544.00,16836.00,0.07,-0.35,10.10,68.00,17.00,31.00,0.07,0.12,-0.13,172,191,203 ,
button pressed
695,72.00,-600.00,16772.00,0.13,-0.38,10.06,66.00,21.00,34.00,0.00,-0.06,-0.01,161,264,199 ,
1396,164.00,-604.00,16424.00,0.02,-0.32,9.94,65.00,20.00,28.00,-0.06,-0.06,-0.07,161,216,190 ,
2095,196.00,-516.00,16776.00,0.06,-0.32,10.08,66.00,18.00,30.00,-0.06,0.06,0.17,186,193,243 ,
2796,140.00,-636.00,16788.00,0.12,-0.36,10.10,64.00,18.00,33.00,-0.18,-0.06,0.05,182,192,235 ,
3495,84.00,-516.00,16884.00,0.06,-0.35,10.05,65.00,19.00,30.00,0.00,0.06,-0.01,179,195,229 ,
4195,224.00,-568.00,16884.00,0.07,-0.36,10.05,65.00,19.00,32.00,-0.18,0.12,-0.13,178,186,219 ,
4896,200.00,-568.00,16720.00,0.06,-0.32,10.07,64.00,19.00,31.00,-0.06,-0.06,0.05,175,188,219 ,
5595,172.00,-584.00,16864.00,0.10,-0.32,10.06,67.00,18.00,30.00,-0.12,-0.00,-0.01,175,192,218 ,
6296,92.00,-584.00,16760.00,0.10,-0.36,10.05,67.00,17.00,34.00,-0.12,-0.19,0.11,177,189,217 ,
6995,80.00,-652.00,16844.00,0.04,-0.35,10.02,64.00,18.00,30.00,-0.12,-0.00,0.17,176,190,216 ,
7695,164.00,-632.00,16796.00,0.11,-0.37,10.07,69.00,23.00,29.00,0.13,0.12,-0.19,177,194,215 ,
8395,96.00,-548.00,16920.00,0.05,-0.33,10.02,64.00,20.00,32.00,-0.12,-0.06,-0.13,175,193,215 ,
9095,156.00,-640.00,16856.00,0.10,-0.34,10.09,68.00,17.00,30.00,0.13,-0.12,-0.13,174,189,213 ,
9795,76.00,-632.00,16852.00,0.10,-0.34,10.05,65.00,22.00,31.00,-0.06,0.18,0.05,176,196,215 ,
10495,148.00,-588.00,16956.00,0.10,-0.34,10.12,66.00,17.00,31.00,0.00,-0.06,0.05,176,196,213 ,
button pressed
695,108.00,-652.00,16812.00,0.06,-0.34,10.07,65.00,20.00,32.00,0.00,-0.06,0.05,162,199,178 ,
1395,144.00,-636.00,16764.00,0.06,-0.36,10.12,68.00,20.00,32.00,0.07,0.06,-0.07,163,178,174 ,
2095,216.00,-472.00,16800.00,0.06,-0.33,10.05,66.00,19.00,36.00,-0.12,0.06,0.05,165,185,189 ,
2795,216.00,-644.00,16788.00,0.08,-0.36,10.00,68.00,21.00,32.00,-0.12,0.18,-0.01,185,226,247 ,
3495,120.00,-604.00,16836.00,0.10,-0.39,10.03,63.00,20.00,34.00,-0.06,-0.00,-0.01,194,217,268 ,
4195,84.00,-560.00,16932.00,0.06,-0.33,10.05,67.00,17.00,32.00,0.07,-0.12,0.11,187,209,250 ,
4895,148.00,-592.00,16992.00,0.09,-0.33,10.11,67.00,20.00,32.00,-0.06,-0.00,0.05,185,204,240 ,
5595,76.00,-624.00,16848.00,0.07,-0.38,10.03,66.00,21.00,33.00,0.13,0.06,0.11,180,201,233 ,
6294,180.00,-528.00,16836.00,0.06,-0.35,10.02,64.00,18.00,31.00,0.07,-0.06,0.05,182,198,227 ,
6995,60.00,-604.00,16848.00,0.04,-0.35,10.12,68.00,19.00,31.00,-0.06,-0.06,0.11,178,195,224 ,
7694,60.00,-592.00,16904.00,0.06,-0.40,10.13,65.00,19.00,30.00,-0.12,0.24,-0.01,178,193,221 ,
8395,132.00,-592.00,16804.00,0.02,-0.36,10.07,64.00,19.00,32.00,-0.06,-0.06,-0.01,175,197,221 ,
9094,124.00,-508.00,16840.00,0.10,-0.33,10.13,67.00,16.00,33.00,0.00,-0.19,-0.01,178,196,222 ,
9794,196.00,-572.00,16672.00,0.13,-0.30,9.99,69.00,17.00,32.00,0.13,-0.31,0.05,176,192,220 ,
10495,32.00,-656.00,16908.00,0.08,-0.40,10.12,65.00,17.00,31.00,-0.06,-0.12,0.11,177,194,219 ,
button pressed
696,124.00,-624.00,16728.00,0.09,-0.38,10.09,66.00,20.00,29.00,-0.06,0.18,-0.01,166,184,191 ,
1396,84.00,-616.00,16868.00,0.04,-0.35,10.00,65.00,21.00,34.00,-0.12,0.18,-0.01,168,248,207 ,
2096,52.00,-620.00,16712.00,0.07,-0.35,10.10,63.00,20.00,27.00,-0.06,-0.00,-0.19,196,210,263 ,
2796,208.00,-580.00,16848.00,0.10,-0.37,9.95,69.00,21.00,30.00,0.13,0.12,0.05,185,206,243 ,
3496,188.00,-564.00,16800.00,0.05,-0.35,10.05,67.00,18.00,32.00,0.13,-0.00,-0.01,180,198,232 ,
4196,152.00,-624.00,16816.00,0.08,-0.34,10.11,66.00,18.00,33.00,-0.12,-0.12,-0.01,177,200,225 ,
4896,108.00,-572.00,16800.00,0.10,-0.37,9.99,63.00,18.00,32.00,-0.18,0.06,-0.01,176,199,221 ,
5596,120.00,-728.00,16840.00,0.07,-0.40,10.07,62.00,18.00,33.00,-0.06,-0.31,-0.01,179,188,215 ,
6296,188.00,-636.00,16832.00,0.07,-0.39,10.04,64.00,21.00,30.00,-0.12,0.12,-0.01,176,198,217 ,
6995,128.00,-448.00,16832.00,0.08,-0.35,10.11,65.00,19.00,30.00,0.13,0.06,-0.13,178,199,217 ,
7696,176.00,-528.00,16944.00,0.11,-0.35,10.03,68.00,20.00,31.00,0.07,0.12,0.24,176,198,216 ,
8395,140.00,-568.00,16896.00,0.06,-0.37,10.11,64.00,18.00,34.00,-0.06,-0.12,0.17,176,199,214 ,
9096,132.00,-604.00,16780.00,0.10,-0.35,10.06,62.00,22.00,33.00,-0.06,0.06,0.11,175,198,212 ,
9795,164.00,-532.00,16820.00,0.12,-0.34,10.06,64.00,19.00,32.00,0.00,0.06,-0.13,174,193,209 ,
10495,200.00,-604.00,16868.00,0.13,-0.39,10.13,66.00,16.00,32.00,0.07,-0.06,-0.01,172,192,200 ,
button pressed
695,144.00,-572.00,16844.00,0.11,-0.35,10.10,67.00,20.00,31.00,0.00,-0.00,-0.01,165,219,190 ,
1395,68.00,-664.00,17012.00,0.10,-0.31,10.02,66.00,21.00,28.00,-0.06,0.06,-0.01,165,208,189 ,
2095,236.00,-528.00,16896.00,0.04,-0.31,10.10,66.00,20.00,33.00,-0.12,-0.06,-0.13,174,212,212 ,
2795,188.00,-556.00,17020.00,0.02,-0.34,10.13,67.00,20.00,31.00,0.07,-0.06,0.17,191,206,255 ,
3495,212.00,-640.00,16876.00,0.09,-0.39,10.20,66.00,17.00,34.00,-0.06,0.12,0.11,185,204,240 ,
4195,124.00,-552.00,16808.00,0.07,-0.33,10.02,68.00,19.00,33.00,0.00,0.06,0.11,179,200,230 ,
4894,204.00,-540.00,16888.00,0.10,-0.32,10.14,64.00,21.00,31.00,-0.18,-0.06,0.11,177,197,223 ,
5595,132.00,-564.00,16744.00,0.10,-0.34,10.03,66.00,22.00,28.00,-0.06,0.12,-0.07,178,197,221 ,
6294,192.00,-616.00,16684.00,0.10,-0.37,10.07,65.00,19.00,32.00,0.00,-0.06,-0.01,176,196,220 ,
6995,164.00,-552.00,16904.00,0.13,-0.34,10.04,64.00,19.00,30.00,-0.12,-0.00,-0.13,177,200,220 ,
7694,160.00,-592.00,16760.00,0.10,-0.32,10.09,64.00,18.00,32.00,-0.06,0.12,-0.01,178,196,219 ,
8395,92.00,-588.00,16848.00,0.05,-0.32,10.02,64.00,18.00,31.00,-0.12,-0.00,-0.07,177,200,220 ,
9095,116.00,-588.00,16948.00,0.07,-0.32,10.06,67.00,21.00,32.00,0.00,0.18,0.05,178,205,220 ,
9794,124.00,-576.00,16956.00,0.06,-0.39,10.12,67.00,18.00,33.00,-0.06,-0.00,0.05,177,212,221 ,
10495,132.00,-584.00,16780.00,0.06,-0.33,10.08,69.00,18.00,35.00,0.00,-0.00,0.11,176,212,220 ,
button pressed
695,104.00,-592.00,16852.00,0.10,-0.38,10.05,63.00,19.00,32.00,-0.18,-0.06,0.11,172,197,196 ,
1395,196.00,-612.00,16740.00,0.11,-0.38,10.08,65.00,20.00,34.00,-0.06,-0.06,0.05,168,184,190 ,
2095,96.00,-584.00,16844.00,0.07,-0.34,10.01,67.00,23.00,31.00,0.07,0.18,-0.01,164,210,194 ,
2795,132.00,-656.00,16908.00,0.12,-0.36,10.11,65.00,19.00,33.00,0.00,-0.12,0.17,167,194,196 ,
3494,96.00,-572.00,16752.00,0.11,-0.34,10.07,64.00,17.00,30.00,-0.12,0.06,-0.19,168,195,198 ,
4195,88.00,-532.00,16848.00,0.07,-0.33,10.13,66.00,19.00,31.00,0.00,-0.06,0.05,169,192,199 ,
4894,272.00,-588.00,16716.00,0.12,-0.35,10.12,64.00,22.00,30.00,-0.18,-0.06,0.05,171,192,202 ,
5595,184.00,-532.00,16800.00,0.04,-0.30,10.10,64.00,18.00,32.00,-0.18,-0.12,-0.01,170,197,206 ,
6294,156.00,-612.00,16824.00,0.07,-0.37,10.06,64.00,20.00,33.00,-0.12,0.24,0.17,172,188,205 ,
6994,184.00,-548.00,16772.00,0.08,-0.33,10.05,65.00,18.00,32.00,-0.06,-0.00,0.17,173,193,208 ,
7695,64.00,-592.00,16864.00,0.08,-0.33,10.10,66.00,18.00,32.00,0.07,-0.00,-0.13,171,188,207 ,
8394,148.00,-644.00,16788.00,0.14,-0.34,10.11,67.00,23.00,30.00,0.07,0.06,-0.07,174,186,204 ,
9095,124.00,-688.00,17000.00,0.09,-0.29,10.07,65.00,19.00,34.00,-0.12,0.12,0.11,173,187,206 ,
9794,184.00,-616.00,16772.00,0.06,-0.33,10.07,67.00,18.00,31.00,0.13,-0.06,-0.07,175,199,209 ,
10494,176.00,-484.00,16780.00,0.09,-0.32,10.06,66.00,19.00,31.00,0.07,0.24,0.11,174,194,210 ,
button pressed
697,40.00,-556.00,16976.00,0.14,-0.32,10.18,64.00,19.00,29.00,-0.12,-0.00,0.11,164,237,191 ,
1397,128.00,-480.00,16848.00,0.12,-0.30,10.12,65.00,23.00,32.00,-0.12,0.12,-0.01,166,270,210 ,
2097,192.00,-608.00,16744.00,0.11,-0.36,10.02,68.00,20.00,33.00,0.00,0.06,0.05,171,283,225 ,
2797,116.00,-516.00,16680.00,0.15,-0.39,10.04,65.00,18.00,33.00,0.00,0.06,0.11,183,244,250 ,
3496,140.00,-528.00,16760.00,0.05,-0.31,10.06,64.00,16.00,27.00,-0.18,-0.00,0.05,180,177,220 ,
4197,156.00,-648.00,16692.00,0.09,-0.34,10.00,65.00,19.00,31.00,-0.12,0.06,-0.01,178,187,220 ,
4896,100.00,-520.00,16900.00,0.06,-0.33,10.03,65.00,19.00,31.00,-0.12,-0.00,0.11,178,186,219 ,
5597,160.00,-600.00,16952.00,0.13,-0.37,10.13,66.00,22.00,35.00,0.07,-0.00,0.11,179,190,219 ,
6296,96.00,-632.00,16788.00,0.13,-0.35,10.07,68.00,18.00,32.00,0.07,0.12,-0.01,178,189,218 ,
6996,72.00,-536.00,16796.00,0.08,-0.38,10.15,68.00,20.00,31.00,0.19,0.36,-0.07,176,190,216 ,
7696,196.00,-628.00,16808.00,0.12,-0.37,10.03,67.00,20.00,33.00,0.00,-0.00,0.05,176,186,215 ,
8396,116.00,-560.00,16852.00,0.03,-0.33,10.07,67.00,20.00,29.00,0.07,0.06,-0.01,177,197,216 ,
9096,156.00,-652.00,16972.00,0.05,-0.39,10.14,67.00,16.00,31.00,-0.06,-0.19,-0.01,176,197,217 ,
9796,132.00,-496.00,16748.00,0.09,-0.36,10.05,64.00,16.00,33.00,-0.06,-0.19,0.11,176,193,215 ,
10495,108.00,-592.00,16960.00,0.05,-0.34,10.02,66.00,19.00,33.00,0.07,-0.06,0.17,175,189,212 ,
button pressed
696,148.00,-540.00,16764.00,0.14,-0.31,10.06,67.00,19.00,31.00,0.07,0.06,-0.13,157,163,158 ,
1396,60.00,-508.00,16816.00,0.06,-0.34,10.00,69.00,18.00,33.00,0.25,-0.06,-0.01,159,174,169 ,
2096,168.00,-516.00,16880.00,0.10,-0.34,10.01,64.00,18.00,31.00,0.07,-0.00,0.05,191,197,252 ,
2796,112.00,-596.00,16876.00,0.07,-0.34,10.09,66.00,17.00,34.00,0.19,-0.19,0.11,183,190,235 ,
3496,116.00,-472.00,16976.00,0.12,-0.36,10.09,65.00,22.00,29.00,0.00,0.06,-0.19,178,181,228 ,
4196,56.00,-584.00,16804.00,0.06,-0.35,10.06,67.00,21.00,30.00,0.00,-0.06,-0.07,179,185,224 ,
4896,136.00,-624.00,16900.00,0.09,-0.37,10.06,65.00,20.00,32.00,0.07,0.18,-0.01,176,185,220 ,
5595,216.00,-720.00,16876.00,0.01,-0.43,10.07,65.00,19.00,30.00,-0.06,0.06,-0.07,175,186,216 ,
6296,152.00,-536.00,16700.00,0.06,-0.39,10.03,66.00,19.00,32.00,0.00,0.06,0.11,174,185,213 ,
6995,88.00,-620.00,16768.00,0.10,-0.35,10.01,63.00,18.00,31.00,0.07,-0.06,0.11,173,179,209 ,
7696,184.00,-636.00,16824.00,0.13,-0.35,10.10,66.00,18.00,32.00,-0.12,0.12,0.11,174,177,204 ,
8395,208.00,-480.00,16888.00,0.12,-0.29,10.10,68.00,20.00,31.00,0.00,0.12,-0.07,173,181,205 ,
9095,108.00,-568.00,16856.00,0.06,-0.35,10.11,67.00,19.00,34.00,0.00,-0.00,-0.01,172,184,205 ,
9795,184.00,-636.00,16788.00,0.07,-0.31,10.13,66.00,19.00,31.00,0.00,-0.00,-0.07,173,186,209 ,
10495,104.00,-580.00,16736.00,0.07,-0.37,10.05,64.00,21.00,33.00,-0.06,-0.06,0.11,173,188,210 ,
button pressed
695,152.00,-412.00,16808.00,0.06,-0.32,9.99,68.00,21.00,33.00,0.07,-0.06,0.17,161,181,177 ,
1396,176.00,-604.00,16848.00,0.05,-0.37,10.10,68.00,23.00,32.00,0.07,0.18,-0.01,158,164,171 ,
2095,148.00,-636.00,16912.00,0.09,-0.38,10.12,66.00,22.00,31.00,-0.06,0.12,-0.01,189,260,280 ,
2796,152.00,-520.00,16852.00,0.14,-0.36,10.05,63.00,21.00,32.00,-0.18,0.12,0.11,187,196,254 ,
3495,124.00,-540.00,16956.00,0.08,-0.37,10.12,67.00,20.00,25.00,-0.06,-0.00,-0.07,182,201,245 ,
4195,260.00,-516.00,16916.00,0.07,-0.32,10.08,68.00,19.00,33.00,0.00,0.06,0.05,178,208,239 ,
4895,116.00,-532.00,16828.00,0.00,-0.35,10.10,63.00,19.00,31.00,0.07,-0.06,-0.01,180,191,228 ,
5595,288.00,-600.00,16940.00,0.11,-0.35,9.99,65.00,21.00,31.00,0.07,0.06,-0.07,177,199,226 ,
6295,116.00,-576.00,16808.00,0.12,-0.34,10.03,65.00,20.00,30.00,-0.18,-0.00,-0.01,177,212,227 ,
6995,136.00,-568.00,16880.00,0.03,-0.37,10.13,65.00,20.00,30.00,-0.06,-0.06,-0.01,174,208,225 ,
7695,124.00,-616.00,16888.00,0.10,-0.33,10.13,65.00,20.00,29.00,-0.06,-0.00,0.17,173,208,223 ,
8395,80.00,-524.00,16832.00,0.10,-0.36,10.15,68.00,21.00,31.00,0.07,-0.06,-0.01,175,203,219 ,
9095,140.00,-600.00,16812.00,0.08,-0.32,10.11,67.00,18.00,34.00,-0.06,-0.12,0.11,171,190,213 ,
9795,196.00,-660.00,16708.00,0.07,-0.38,10.00,65.00,20.00,31.00,0.00,0.12,0.24,173,201,214 ,
10495,168.00,-556.00,16808.00,0.09,-0.34,10.10,69.00,19.00,32.00,0.25,0.06,-0.01,173,202,214 ,
button pressed
696,208.00,-616.00,16776.00,0.09,-0.33,10.02,64.00,18.00,29.00,0.07,-0.06,0.05,155,185,160 ,
1396,40.00,-544.00,16816.00,0.05,-0.35,10.02,65.00,17.00,31.00,0.00,0.06,-0.01,155,193,168 ,
2096,92.00,-640.00,16920.00,0.06,-0.39,10.03,67.00,19.00,30.00,0.13,0.12,-0.01,184,230,256 ,
2796,164.00,-552.00,16860.00,0.07,-0.29,10.12,67.00,21.00,31.00,-0.06,0.12,-0.07,178,195,222 ,
3496,152.00,-616.00,16736.00,0.13,-0.34,10.03,66.00,18.00,31.00,0.00,0.06,-0.01,172,199,217 ,
4195,196.00,-584.00,16992.00,0.07,-0.37,10.08,63.00,19.00,30.00,-0.06,0.18,0.05,174,194,211 ,
4896,108.00,-520.00,16852.00,0.11,-0.32,10.13,63.00,20.00,31.00,-0.12,-0.00,0.05,172,191,210 ,
5595,120.00,-592.00,16688.00,0.03,-0.34,10.05,68.00,19.00,31.00,0.00,0.06,0.05,172,198,211 ,
6296,140.00,-564.00,16812.00,0.06,-0.34,9.96,67.00,17.00,33.00,-0.06,0.06,0.05,172,199,208 ,
6995,136.00,-556.00,16824.00,0.11,-0.32,10.06,65.00,20.00,31.00,0.00,-0.00,0.05,170,197,209 ,
7695,116.00,-624.00,16884.00,0.08,-0.34,10.09,67.00,22.00,30.00,-0.18,0.18,0.05,169,193,207 ,
8395,164.00,-596.00,16784.00,0.12,-0.34,10.03,67.00,22.00,32.00,0.00,-0.06,0.11,170,192,206 ,
9095,148.00,-540.00,16868.00,0.15,-0.34,10.10,65.00,21.00,32.00,-0.18,0.12,0.05,171,195,206 ,
9796,172.00,-568.00,16832.00,0.03,-0.37,10.10,68.00,16.00,33.00,-0.06,-0.06,0.05,171,187,204 ,
10495,80.00,-596.00,16708.00,0.05,-0.39,10.09,63.00,18.00,32.00,0.00,-0.06,-0.01,171,198,208 ,
button pressed
697,208.00,-576.00,16860.00,0.13,-0.37,10.13,65.00,19.00,32.00,-0.18,-0.00,0.24,163,192,180 ,
1397,92.00,-552.00,16840.00,0.05,-0.28,10.13,68.00,17.00,33.00,-0.06,-0.06,-0.13,163,193,185 ,
2096,256.00,-584.00,16804.00,0.15,-0.36,10.06,66.00,19.00,31.00,-0.06,-0.00,0.05,184,217,250 ,
2797,140.00,-700.00,16860.00,0.11,-0.38,10.08,63.00,19.00,33.00,0.00,0.12,-0.01,181,198,234 ,
3496,12.00,-560.00,16972.00,0.07,-0.33,10.10,67.00,19.00,30.00,-0.06,-0.06,0.05,181,200,228 ,
4197,108.00,-560.00,16800.00,0.10,-0.38,10.11,66.00,18.00,32.00,0.00,-0.00,0.17,178,197,225 ,
4896,204.00,-460.00,16888.00,0.08,-0.28,10.11,66.00,21.00,32.00,0.00,-0.00,0.05,179,199,223 ,
5596,144.00,-600.00,16916.00,0.07,-0.32,10.06,67.00,18.00,31.00,0.07,0.06,-0.01,178,196,220 ,
6296,184.00,-520.00,16724.00,0.13,-0.34,9.98,66.00,19.00,33.00,0.00,0.12,0.05,176,200,219 ,
6996,184.00,-684.00,16852.00,0.09,-0.39,10.02,68.00,22.00,30.00,0.07,-0.06,0.11,177,201,218 ,
7696,196.00,-556.00,16864.00,0.10,-0.31,10.10,65.00,17.00,31.00,0.13,-0.00,0.05,174,197,215 ,
8396,112.00,-604.00,16800.00,0.07,-0.36,10.05,70.00,18.00,33.00,0.13,-0.06,-0.01,176,198,215 ,
9095,132.00,-552.00,16772.00,0.05,-0.33,9.99,65.00,19.00,32.00,-0.06,-0.00,0.11,177,202,215 ,
9796,208.00,-540.00,16696.00,0.10,-0.35,10.04,65.00,20.00,32.00,-0.12,-0.06,0.17,175,202,214 ,
10495,128.00,-576.00,16960.00,0.06,-0.34,10.06,63.00,19.00,34.00,-0.06,-0.00,0.24,176,203,213 ,
