Program started
Initialize MPU6050
 * Sleep Mode:            Disabled
 * Clock Source:          PLL with X axis gyroscope reference
 * Accelerometer:         +/- 2 g
 * Accelerometer offsets: -3540 / -3691 / 1478
 * Gyroscope:         2000 dps
 * Gyroscope offsets: 155 / 15 / 15
button pressed
Time, ACC_X-raw, ACC_Y-raw, ACC_Z-raw, ACC_X-norm, ACC_Y-norm, ACC_Z-norm, GYRO_X-raw, GYRO_Y-raw,GYRO_Z-raw, GYRO_X-norm, GYRO_Y-norm, GYRO_Z-norm, Ceramic_Piezo, Film_Piezo, Weighted_Film_Piezo, Vibration_Senso
696,148.00,-532.00,16892.00,0.15,-0.28,10.09,63.00,19.00,29.00,0.01,0.14,-0.26,195,132,126 ,
1396,132.00,-548.00,16888.00,0.05,-0.30,10.08,68.00,18.00,30.00,0.01,0.01,-0.08,148,133,132 ,
2096,12.00,-492.00,16756.00,0.06,-0.37,10.02,66.00,21.00,33.00,-0.05,-0.05,0.10,149,137,138 ,
2795,184.00,-628.00,16944.00,0.13,-0.35,10.12,64.00,20.00,33.00,-0.17,0.07,-0.02,152,145,142 ,
3496,108.00,-568.00,16740.00,0.04,-0.37,10.03,63.00,18.00,33.00,-0.05,0.01,-0.02,152,171,153 ,
4196,156.00,-600.00,16876.00,0.10,-0.32,10.01,66.00,20.00,31.00,-0.11,0.01,0.04,154,149,152 ,
4896,72.00,-640.00,16964.00,0.07,-0.29,10.16,67.00,18.00,32.00,0.01,-0.23,-0.14,155,150,155 ,
5596,184.00,-592.00,16628.00,0.08,-0.35,10.02,68.00,20.00,32.00,0.01,0.07,0.17,155,154,158 ,
6295,256.00,-596.00,16812.00,0.13,-0.33,10.06,65.00,25.00,34.00,-0.29,0.14,0.17,158,157,163 ,
6996,180.00,-580.00,16876.00,0.03,-0.33,10.13,63.00,21.00,33.00,-0.05,0.07,-0.08,158,156,166 ,
7695,164.00,-600.00,16780.00,0.07,-0.33,10.09,65.00,18.00,31.00,-0.05,-0.17,0.10,159,159,169 ,
8396,148.00,-612.00,16884.00,0.05,-0.38,10.12,65.00,19.00,30.00,0.01,0.07,-0.02,160,158,171 ,
9095,100.00,-552.00,16704.00,0.04,-0.37,10.07,64.00,17.00,29.00,-0.05,-0.23,0.10,161,165,172 ,
9795,228.00,-640.00,16876.00,0.14,-0.37,10.09,66.00,18.00,32.00,0.07,0.07,-0.02,161,161,173 ,
10495,68.00,-620.00,16928.00,0.09,-0.33,10.10,67.00,21.00,31.00,0.13,0.01,0.10,161,162,176 ,
button pressed
695,180.00,-588.00,16864.00,0.11,-0.33,10.08,67.00,15.00,32.00,0.01,-0.23,-0.02,161,173,182 ,
1396,96.00,-612.00,16836.00,0.08,-0.34,10.09,64.00,17.00,33.00,-0.05,0.01,0.23,160,182,187 ,
2095,108.00,-504.00,16820.00,0.06,-0.30,10.06,63.00,17.00,32.00,0.07,-0.17,0.10,163,181,187 ,
2796,168.00,-628.00,16960.00,0.08,-0.33,10.12,67.00,19.00,31.00,0.01,-0.11,-0.02,159,168,182 ,
3495,172.00,-516.00,16764.00,0.10,-0.40,10.04,66.00,17.00,31.00,0.01,-0.05,-0.08,158,174,181 ,
4195,180.00,-576.00,16828.00,0.14,-0.34,10.14,66.00,20.00,31.00,-0.17,0.01,0.04,159,190,189 ,
4896,136.00,-548.00,16780.00,0.02,-0.34,10.16,66.00,17.00,33.00,0.07,0.14,0.10,163,189,190 ,
5595,184.00,-568.00,17076.00,0.11,-0.35,10.09,67.00,16.00,29.00,0.07,-0.17,-0.14,165,198,196 ,
6296,92.00,-576.00,16736.00,0.10,-0.39,10.05,65.00,22.00,29.00,-0.05,0.14,-0.20,164,195,199 ,
6995,84.00,-580.00,16768.00,0.14,-0.38,9.98,68.00,20.00,29.00,0.01,-0.05,-0.08,165,193,199 ,
7695,212.00,-648.00,16832.00,0.09,-0.41,10.09,65.00,20.00,33.00,-0.05,0.14,-0.02,166,192,201 ,
8395,164.00,-556.00,16812.00,0.04,-0.34,10.08,66.00,19.00,31.00,-0.11,-0.05,-0.02,165,190,200 ,
9095,172.00,-560.00,16880.00,0.10,-0.33,10.10,65.00,19.00,34.00,0.07,0.01,0.17,167,188,199 ,
9795,216.00,-520.00,16892.00,0.05,-0.35,10.10,64.00,23.00,33.00,0.07,0.26,-0.02,168,188,198 ,
10495,196.00,-548.00,16844.00,0.14,-0.35,10.00,67.00,19.00,31.00,0.01,0.14,0.17,166,190,200 ,
button pressed
696,144.00,-660.00,16876.00,0.06,-0.38,10.08,66.00,22.00,33.00,-0.05,0.20,-0.02,159,165,176 ,
1396,100.00,-620.00,16608.00,0.08,-0.40,10.12,66.00,20.00,32.00,0.07,0.07,0.10,158,172,181 ,
2096,156.00,-624.00,16924.00,0.14,-0.38,10.07,65.00,19.00,30.00,0.01,0.20,0.10,158,174,182 ,
2796,164.00,-568.00,16896.00,0.06,-0.33,10.01,65.00,16.00,32.00,0.01,0.01,-0.02,160,175,181 ,
3496,88.00,-636.00,16760.00,0.08,-0.37,10.11,67.00,20.00,32.00,0.01,0.01,0.10,158,175,183 ,
4195,136.00,-656.00,16896.00,0.04,-0.37,10.05,68.00,19.00,32.00,-0.05,-0.05,-0.08,160,177,186 ,
4896,132.00,-668.00,16824.00,0.08,-0.33,10.09,67.00,20.00,28.00,0.07,0.07,-0.08,159,178,188 ,
5595,144.00,-540.00,16888.00,0.09,-0.43,10.03,66.00,19.00,32.00,0.07,0.14,0.04,159,186,189 ,
6296,148.00,-600.00,17044.00,0.11,-0.37,10.13,66.00,18.00,32.00,-0.05,0.01,-0.08,162,182,187 ,
6995,156.00,-644.00,16868.00,0.05,-0.36,10.10,66.00,19.00,32.00,0.01,-0.05,0.10,159,184,189 ,
7695,60.00,-608.00,16848.00,0.05,-0.34,10.10,66.00,18.00,32.00,0.01,-0.17,0.10,159,188,191 ,
8395,192.00,-576.00,16844.00,0.11,-0.33,10.04,67.00,17.00,31.00,0.01,-0.11,-0.08,162,183,189 ,
9095,156.00,-596.00,16828.00,0.04,-0.28,10.13,64.00,17.00,33.00,-0.11,0.07,0.04,159,182,188 ,
9795,124.00,-528.00,16916.00,0.07,-0.33,10.08,69.00,18.00,28.00,0.19,-0.05,0.04,158,180,188 ,
10495,204.00,-592.00,16860.00,0.08,-0.34,9.98,66.00,17.00,32.00,0.01,-0.23,0.10,159,180,189 ,
button pressed
695,92.00,-612.00,16716.00,0.04,-0.35,10.09,62.00,19.00,30.00,0.01,0.01,-0.02,162,201,198 ,
1395,60.00,-564.00,16796.00,0.06,-0.34,10.04,63.00,19.00,31.00,0.01,-0.05,0.04,163,203,201 ,
2095,68.00,-516.00,16912.00,0.07,-0.34,10.06,64.00,17.00,31.00,-0.05,0.01,0.10,162,197,202 ,
2795,200.00,-588.00,16816.00,0.11,-0.36,10.03,67.00,21.00,31.00,0.07,0.14,-0.02,164,191,202 ,
3495,224.00,-560.00,16968.00,0.10,-0.36,10.12,68.00,21.00,32.00,0.01,0.14,-0.02,165,196,203 ,
4195,180.00,-560.00,16720.00,0.07,-0.36,9.98,62.00,20.00,33.00,-0.11,0.07,-0.02,164,190,203 ,
4895,160.00,-540.00,16812.00,0.09,-0.39,10.08,62.00,21.00,32.00,-0.11,0.01,-0.08,165,194,205 ,
5595,192.00,-560.00,16864.00,0.10,-0.35,10.07,70.00,18.00,29.00,0.13,0.01,-0.02,164,193,205 ,
6295,100.00,-572.00,16764.00,0.09,-0.35,10.06,66.00,23.00,31.00,0.01,0.26,-0.02,164,190,206 ,
6995,132.00,-588.00,16868.00,0.11,-0.33,10.08,65.00,23.00,31.00,-0.11,0.14,0.17,168,190,205 ,
7695,184.00,-536.00,16780.00,0.06,-0.37,9.95,65.00,16.00,31.00,-0.11,-0.11,-0.02,163,187,203 ,
8394,124.00,-652.00,16880.00,0.13,-0.37,10.04,65.00,19.00,33.00,-0.05,0.07,0.10,165,188,203 ,
9095,92.00,-604.00,16792.00,0.11,-0.31,10.02,66.00,17.00,32.00,0.01,0.07,0.17,163,184,202 ,
9794,176.00,-604.00,16792.00,0.10,-0.35,10.10,67.00,22.00,32.00,-0.05,0.14,0.04,165,185,201 ,
10495,148.00,-508.00,16964.00,0.09,-0.30,10.07,64.00,19.00,30.00,-0.05,-0.11,-0.02,165,190,201 ,
button pressed
697,132.00,-560.00,16808.00,0.11,-0.32,10.07,65.00,18.00,32.00,-0.05,0.07,-0.08,157,208,193 ,
1396,84.00,-560.00,16852.00,0.07,-0.37,10.07,65.00,20.00,33.00,0.07,0.07,0.10,160,198,193 ,
2096,164.00,-680.00,17000.00,0.10,-0.38,10.10,66.00,19.00,33.00,0.07,0.14,0.04,158,192,192 ,
2796,132.00,-592.00,16860.00,0.04,-0.32,10.09,67.00,19.00,33.00,0.01,0.01,0.10,160,188,191 ,
3496,164.00,-472.00,16744.00,0.07,-0.33,10.10,64.00,20.00,32.00,-0.05,0.07,-0.02,158,191,192 ,
4197,164.00,-540.00,16888.00,0.07,-0.35,10.07,63.00,17.00,30.00,0.07,-0.05,-0.02,160,186,188 ,
4896,196.00,-592.00,16836.00,0.12,-0.31,10.05,65.00,16.00,31.00,-0.05,-0.05,0.04,158,193,195 ,
5597,148.00,-588.00,16852.00,0.17,-0.37,10.07,63.00,17.00,31.00,-0.17,0.01,-0.08,158,190,196 ,
6296,88.00,-600.00,16860.00,0.05,-0.36,10.09,65.00,20.00,33.00,-0.11,0.07,0.04,162,189,199 ,
6996,172.00,-568.00,16948.00,0.10,-0.35,10.05,67.00,20.00,32.00,0.13,0.07,0.04,165,187,201 ,
7696,92.00,-524.00,16840.00,0.10,-0.34,10.03,68.00,20.00,28.00,0.19,0.01,-0.08,165,189,201 ,
8396,188.00,-488.00,16804.00,0.07,-0.34,10.05,67.00,19.00,29.00,-0.17,0.07,-0.14,166,187,199 ,
9096,100.00,-520.00,16812.00,0.06,-0.32,10.11,65.00,17.00,30.00,0.07,-0.11,-0.08,162,185,199 ,
9796,28.00,-556.00,16816.00,0.07,-0.32,9.96,65.00,22.00,33.00,-0.11,0.14,-0.02,163,173,195 ,
10495,144.00,-636.00,16900.00,0.02,-0.40,10.12,65.00,19.00,34.00,-0.17,0.01,0.04,162,169,194 ,
button pressed
695,148.00,-588.00,16948.00,0.12,-0.30,10.08,68.00,19.00,31.00,0.19,-0.05,0.04,161,199,201 ,
1395,184.00,-484.00,16812.00,0.09,-0.31,10.07,68.00,17.00,31.00,0.13,-0.23,-0.08,162,190,202 ,
2095,196.00,-476.00,16840.00,0.07,-0.32,10.05,68.00,19.00,30.00,-0.05,-0.05,-0.02,156,186,200 ,
2795,144.00,-516.00,16824.00,0.15,-0.29,10.12,66.00,18.00,29.00,-0.05,0.14,-0.20,161,166,194 ,
3496,96.00,-568.00,16744.00,0.04,-0.40,10.03,69.00,20.00,33.00,0.13,-0.05,-0.02,162,181,198 ,
4195,124.00,-564.00,16868.00,0.05,-0.32,10.15,68.00,16.00,32.00,-0.05,-0.29,-0.08,167,183,201 ,
4895,56.00,-564.00,16756.00,0.03,-0.37,10.01,65.00,17.00,31.00,0.07,-0.11,-0.08,164,202,207 ,
5595,132.00,-692.00,17044.00,0.13,-0.37,10.13,65.00,19.00,31.00,0.25,0.07,-0.02,167,198,207 ,
6295,152.00,-592.00,16928.00,0.10,-0.32,10.13,64.00,20.00,30.00,-0.17,0.20,-0.02,165,192,207 ,
6995,212.00,-636.00,16812.00,0.08,-0.37,10.10,67.00,19.00,33.00,-0.05,0.01,0.10,165,192,207 ,
7695,144.00,-552.00,16772.00,0.07,-0.34,10.03,65.00,22.00,31.00,0.01,0.14,-0.02,163,192,204 ,
8394,176.00,-528.00,16764.00,0.09,-0.33,10.03,67.00,16.00,33.00,0.13,-0.05,0.23,167,195,206 ,
9095,200.00,-568.00,16644.00,0.12,-0.28,10.07,65.00,21.00,29.00,-0.05,0.01,-0.20,165,187,203 ,
9794,132.00,-576.00,16844.00,0.08,-0.33,10.02,62.00,19.00,31.00,-0.11,0.14,0.04,164,192,205 ,
10495,60.00,-524.00,16780.00,0.11,-0.32,10.05,63.00,20.00,33.00,-0.29,0.07,-0.02,164,193,205 ,
button pressed
696,224.00,-532.00,16768.00,0.13,-0.36,10.07,66.00,22.00,33.00,0.07,0.14,0.04,164,198,200 ,
1396,88.00,-536.00,16896.00,0.08,-0.32,10.04,66.00,21.00,28.00,0.13,0.07,-0.20,166,194,202 ,
2096,144.00,-492.00,16732.00,0.14,-0.33,10.08,67.00,17.00,31.00,-0.05,-0.11,-0.02,162,192,204 ,
2796,184.00,-592.00,16884.00,0.12,-0.36,10.09,66.00,20.00,31.00,0.25,0.01,0.04,164,191,204 ,
3496,120.00,-560.00,16772.00,0.09,-0.33,9.98,65.00,19.00,32.00,0.13,-0.05,0.04,165,190,203 ,
4196,108.00,-568.00,16696.00,0.04,-0.33,10.00,67.00,21.00,30.00,0.19,0.01,0.04,166,193,204 ,
4895,44.00,-676.00,16832.00,0.07,-0.38,10.10,61.00,19.00,32.00,-0.11,-0.05,0.17,166,183,201 ,
5596,136.00,-520.00,16916.00,0.11,-0.35,10.11,63.00,21.00,29.00,-0.11,0.01,0.04,165,195,206 ,
6295,156.00,-568.00,16744.00,0.08,-0.39,10.05,63.00,21.00,33.00,-0.17,0.14,0.04,164,198,208 ,
6996,96.00,-604.00,16848.00,0.12,-0.36,10.00,64.00,19.00,33.00,-0.11,-0.05,-0.02,170,192,209 ,
7695,128.00,-528.00,16816.00,0.06,-0.27,10.04,66.00,19.00,29.00,-0.11,0.07,-0.08,167,191,207 ,
8395,76.00,-664.00,16860.00,0.04,-0.33,10.03,68.00,18.00,33.00,-0.11,-0.17,0.17,166,188,208 ,
9095,216.00,-632.00,16952.00,0.10,-0.36,10.14,65.00,22.00,32.00,0.01,0.20,-0.02,165,189,207 ,
9795,128.00,-568.00,16764.00,0.10,-0.32,10.09,68.00,18.00,31.00,0.13,0.14,-0.02,169,186,204 ,
10495,84.00,-652.00,16776.00,0.07,-0.31,9.98,68.00,21.00,29.00,-0.05,0.07,-0.26,166,187,203 ,
button pressed
696,120.00,-600.00,16876.00,0.11,-0.36,10.03,66.00,18.00,32.00,0.01,0.07,0.04,164,176,193 ,
1395,152.00,-576.00,16860.00,0.09,-0.34,10.09,65.00,21.00,29.00,0.13,0.14,-0.08,163,181,194 ,
2096,92.00,-612.00,16824.00,0.10,-0.35,10.03,67.00,20.00,31.00,0.01,0.01,0.04,161,180,195 ,
2795,148.00,-524.00,16824.00,0.10,-0.34,10.13,66.00,22.00,34.00,0.01,0.01,-0.08,161,181,195 ,
3496,164.00,-548.00,16728.00,0.14,-0.35,10.11,66.00,24.00,33.00,-0.11,0.26,0.04,160,182,193 ,
4196,144.00,-620.00,16872.00,0.10,-0.36,10.09,66.00,18.00,31.00,-0.05,0.01,0.04,162,182,194 ,
4895,80.00,-540.00,16844.00,0.08,-0.33,10.07,63.00,18.00,31.00,-0.17,0.01,0.10,164,185,196 ,
5596,196.00,-516.00,16808.00,0.07,-0.33,10.04,65.00,19.00,31.00,-0.11,0.14,-0.14,168,180,197 ,
6295,200.00,-616.00,16756.00,0.12,-0.36,10.05,65.00,23.00,29.00,-0.05,0.01,-0.08,162,189,200 ,
6996,172.00,-604.00,16728.00,0.08,-0.33,10.04,64.00,20.00,28.00,-0.05,0.07,-0.14,162,186,199 ,
7695,28.00,-512.00,16908.00,0.10,-0.35,10.03,67.00,21.00,31.00,0.01,0.38,-0.08,160,186,199 ,
8395,164.00,-648.00,17044.00,0.14,-0.37,10.07,66.00,20.00,30.00,0.07,0.01,-0.20,164,190,201 ,
9095,132.00,-536.00,16888.00,0.16,-0.33,10.06,66.00,18.00,31.00,0.13,-0.17,0.04,163,188,202 ,
9795,96.00,-460.00,17012.00,0.06,-0.28,10.09,65.00,17.00,31.00,-0.11,-0.05,-0.08,163,187,205 ,
10495,160.00,-628.00,16840.00,0.11,-0.35,10.07,69.00,21.00,31.00,0.01,0.14,-0.14,168,185,204 ,
button pressed
697,108.00,-628.00,16948.00,0.09,-0.39,10.07,64.00,16.00,32.00,-0.11,0.07,-0.08,161,185,187 ,
1396,56.00,-500.00,16956.00,0.05,-0.35,10.20,64.00,20.00,31.00,-0.05,0.20,-0.02,159,187,190 ,
2097,72.00,-672.00,16948.00,0.10,-0.39,10.11,65.00,19.00,29.00,0.07,0.01,-0.08,156,182,189 ,
2796,88.00,-492.00,16868.00,0.06,-0.33,10.12,65.00,23.00,31.00,0.07,0.20,0.04,162,198,194 ,
3496,164.00,-564.00,16840.00,0.15,-0.41,10.05,67.00,20.00,32.00,0.01,0.20,0.04,162,192,194 ,
4196,124.00,-620.00,16824.00,0.03,-0.31,10.07,68.00,20.00,29.00,-0.05,-0.05,-0.02,160,185,193 ,
4896,192.00,-532.00,16864.00,0.09,-0.35,10.12,67.00,19.00,28.00,0.07,-0.11,0.04,158,189,196 ,
5596,168.00,-576.00,16916.00,0.11,-0.32,10.14,64.00,19.00,31.00,-0.11,-0.05,-0.02,159,191,197 ,
6296,196.00,-624.00,16888.00,0.10,-0.39,10.07,65.00,23.00,32.00,-0.23,0.26,0.04,165,194,201 ,
6995,132.00,-516.00,16780.00,0.06,-0.37,10.08,67.00,16.00,29.00,0.01,0.20,-0.14,162,193,206 ,
7696,128.00,-468.00,16780.00,0.10,-0.34,10.05,67.00,15.00,31.00,0.01,-0.05,-0.02,166,192,206 ,
8395,216.00,-508.00,16888.00,0.07,-0.33,10.05,65.00,17.00,32.00,0.07,-0.17,-0.20,167,185,205 ,
9096,180.00,-536.00,16960.00,0.12,-0.35,10.15,65.00,21.00,29.00,0.01,0.14,-0.08,162,192,207 ,
9795,116.00,-584.00,16836.00,0.05,-0.33,10.03,66.00,22.00,31.00,-0.05,0.14,0.04,164,197,208 ,
10495,112.00,-712.00,16884.00,0.09,-0.39,10.03,63.00,18.00,33.00,-0.11,-0.05,0.04,168,197,207 ,
button pressed
696,144.00,-576.00,16892.00,0.16,-0.35,10.12,66.00,17.00,33.00,0.07,-0.17,-0.08,165,203,199 ,
1395,136.00,-524.00,16980.00,0.00,-0.30,10.02,65.00,15.00,35.00,0.01,-0.23,-0.02,164,199,200 ,
2096,136.00,-528.00,16780.00,0.06,-0.35,10.06,65.00,21.00,35.00,-0.05,0.26,-0.02,168,193,200 ,
2796,28.00,-620.00,16892.00,0.07,-0.30,10.07,69.00,20.00,30.00,0.19,0.01,0.04,167,193,201 ,
3496,156.00,-636.00,16804.00,0.09,-0.39,10.13,66.00,18.00,30.00,0.07,-0.05,-0.02,168,189,200 ,
4196,232.00,-552.00,16740.00,0.10,-0.36,10.02,65.00,20.00,34.00,-0.11,-0.17,0.17,168,191,200 ,
4895,140.00,-588.00,16876.00,0.06,-0.39,10.05,65.00,19.00,31.00,-0.11,-0.05,-0.02,166,195,201 ,
5596,96.00,-496.00,16868.00,0.12,-0.31,10.20,67.00,18.00,29.00,0.01,-0.05,-0.14,166,191,199 ,
6295,132.00,-752.00,16876.00,0.10,-0.36,10.15,66.00,19.00,28.00,0.13,0.01,-0.02,170,197,201 ,
6996,148.00,-512.00,16736.00,0.04,-0.30,10.09,63.00,21.00,31.00,-0.11,0.01,-0.08,167,194,202 ,
7695,232.00,-508.00,16928.00,0.10,-0.34,10.01,65.00,17.00,32.00,-0.05,0.07,0.04,167,196,204 ,
8395,108.00,-560.00,16936.00,0.07,-0.36,10.02,65.00,19.00,27.00,-0.11,0.01,-0.14,168,198,205 ,
9095,304.00,-568.00,16784.00,0.14,-0.33,10.09,64.00,19.00,32.00,-0.11,-0.05,0.17,168,197,207 ,
9795,144.00,-564.00,17020.00,0.04,-0.32,10.11,65.00,16.00,35.00,-0.05,-0.05,-0.02,171,196,208 ,
10495,152.00,-608.00,16944.00,0.10,-0.32,10.16,68.00,17.00,33.00,0.19,-0.05,0.17,167,183,202 ,
button pressed
696,64.00,-620.00,16776.00,0.06,-0.38,10.01,67.00,18.00,29.00,0.01,-0.05,-0.08,159,208,183 ,
1396,172.00,-600.00,16788.00,0.11,-0.34,10.01,69.00,18.00,32.00,0.07,-0.05,0.04,157,196,181 ,
2096,184.00,-608.00,16952.00,0.11,-0.31,10.18,63.00,18.00,29.00,-0.11,0.01,-0.02,158,191,180 ,
2797,68.00,-592.00,16872.00,0.07,-0.36,10.11,65.00,18.00,32.00,0.07,0.14,0.04,156,190,180 ,
3496,176.00,-608.00,16908.00,0.12,-0.39,10.12,63.00,18.00,31.00,0.13,0.14,-0.02,159,190,181 ,
4196,64.00,-544.00,16776.00,0.06,-0.34,10.10,66.00,17.00,31.00,0.07,-0.05,0.04,160,191,183 ,
4896,144.00,-584.00,16776.00,0.06,-0.40,10.03,66.00,18.00,30.00,-0.11,-0.11,-0.14,163,189,185 ,
5596,120.00,-624.00,16924.00,0.05,-0.36,10.06,66.00,20.00,29.00,-0.05,-0.05,-0.14,158,191,188 ,
6296,88.00,-632.00,16732.00,0.06,-0.35,10.03,66.00,19.00,30.00,0.01,0.01,-0.08,159,189,189 ,
6996,172.00,-600.00,16964.00,0.07,-0.34,10.03,65.00,20.00,31.00,0.01,0.01,-0.02,164,193,192 ,
7695,172.00,-560.00,16816.00,0.07,-0.37,10.04,64.00,17.00,32.00,0.01,0.01,0.04,166,190,191 ,
8396,92.00,-592.00,16768.00,0.10,-0.37,10.03,69.00,18.00,35.00,0.01,-0.05,0.10,162,188,193 ,
9095,164.00,-612.00,16844.00,0.09,-0.38,10.16,66.00,21.00,30.00,0.01,0.01,-0.02,164,189,195 ,
9796,152.00,-588.00,16916.00,0.09,-0.35,10.14,65.00,23.00,31.00,-0.17,0.07,-0.02,163,186,194 ,
10495,188.00,-568.00,16792.00,0.12,-0.37,9.96,63.00,20.00,33.00,-0.11,0.07,0.04,161,190,195 ,
button pressed
697,68.00,-580.00,16824.00,0.10,-0.35,10.15,66.00,20.00,30.00,0.01,-0.05,-0.14,153,164,169 ,
1396,148.00,-500.00,16720.00,0.03,-0.29,10.10,67.00,21.00,30.00,0.07,-0.11,0.17,154,173,173 ,
2096,80.00,-556.00,16824.00,-0.03,-0.33,10.07,63.00,22.00,30.00,-0.17,0.20,-0.08,154,174,177 ,
2796,188.00,-556.00,16784.00,0.14,-0.29,10.02,65.00,20.00,34.00,-0.11,-0.11,-0.08,155,185,183 ,
3496,160.00,-484.00,16832.00,0.04,-0.30,10.05,67.00,18.00,32.00,-0.11,-0.11,-0.02,157,184,188 ,
4197,52.00,-636.00,16824.00,0.04,-0.31,10.04,67.00,22.00,31.00,0.13,0.07,0.23,158,190,191 ,
4896,120.00,-584.00,16980.00,0.09,-0.33,10.12,64.00,17.00,31.00,-0.11,-0.11,0.04,160,192,195 ,
5596,68.00,-532.00,16820.00,0.01,-0.37,10.00,64.00,21.00,32.00,-0.05,0.01,0.17,162,191,199 ,
6296,200.00,-580.00,16736.00,0.11,-0.34,10.03,65.00,20.00,32.00,0.01,-0.11,-0.14,163,167,195 ,
6996,188.00,-492.00,16860.00,0.11,-0.33,10.02,65.00,17.00,31.00,0.01,-0.11,0.04,167,158,190 ,
7696,116.00,-600.00,16892.00,0.08,-0.33,10.06,65.00,19.00,31.00,-0.05,0.01,0.10,164,190,202 ,
8396,164.00,-584.00,16828.00,0.06,-0.30,10.16,64.00,19.00,33.00,-0.05,0.01,-0.02,163,193,205 ,
9095,68.00,-568.00,16864.00,0.11,-0.36,10.05,69.00,18.00,31.00,0.13,-0.17,0.10,165,195,206 ,
9796,144.00,-552.00,16800.00,0.12,-0.31,10.10,67.00,21.00,29.00,0.07,0.20,-0.14,168,192,207 ,
10495,252.00,-568.00,16800.00,0.12,-0.35,10.09,62.00,16.00,29.00,-0.11,-0.17,-0.14,171,196,208 ,
button pressed
696,184.00,-484.00,16852.00,0.07,-0.26,10.05,64.00,16.00,32.00,0.07,-0.17,0.10,168,209,202 ,
1397,220.00,-552.00,16888.00,0.17,-0.35,10.11,66.00,20.00,30.00,0.01,0.01,0.04,166,200,200 ,
2096,60.00,-660.00,16876.00,0.06,-0.31,10.04,66.00,20.00,32.00,0.07,-0.05,0.04,165,195,201 ,
2797,88.00,-536.00,16840.00,0.13,-0.29,10.11,66.00,18.00,34.00,0.01,0.01,0.10,167,197,201 ,
3496,140.00,-632.00,16880.00,0.09,-0.38,10.06,66.00,17.00,29.00,-0.05,0.07,-0.08,166,193,199 ,
4196,156.00,-560.00,16772.00,0.11,-0.37,10.07,66.00,20.00,28.00,0.07,0.01,-0.20,168,195,200 ,
4896,148.00,-612.00,16772.00,0.15,-0.35,10.00,67.00,17.00,32.00,-0.05,-0.11,0.10,170,195,203 ,
5596,32.00,-560.00,16856.00,0.05,-0.33,10.16,65.00,17.00,29.00,0.01,-0.11,-0.02,165,193,201 ,
6296,188.00,-544.00,16740.00,0.11,-0.39,10.10,66.00,18.00,32.00,-0.11,-0.05,-0.02,170,193,204 ,
6996,76.00,-612.00,16724.00,0.09,-0.34,10.15,68.00,20.00,29.00,0.01,0.01,0.04,163,194,204 ,
7695,124.00,-620.00,17012.00,0.13,-0.32,10.10,65.00,18.00,31.00,0.07,0.07,0.04,167,191,202 ,
8396,104.00,-608.00,16824.00,0.08,-0.43,10.04,66.00,20.00,29.00,-0.05,0.01,-0.08,169,191,203 ,
9095,112.00,-620.00,17008.00,0.05,-0.37,10.11,68.00,17.00,31.00,-0.05,-0.17,-0.08,165,200,209 ,
9796,36.00,-512.00,16780.00,0.02,-0.35,10.01,65.00,19.00,29.00,-0.05,0.01,-0.02,172,201,210 ,
10495,192.00,-536.00,16676.00,0.06,-0.33,10.08,65.00,19.00,32.00,-0.05,0.01,-0.14,173,200,209 ,
button pressed
697,20.00,-572.00,16860.00,0.04,-0.33,10.13,64.00,21.00,30.00,0.07,0.14,-0.02,160,205,182 ,
1396,220.00,-536.00,16820.00,0.07,-0.35,10.02,70.00,22.00,31.00,0.25,-0.05,0.04,160,195,185 ,
2096,96.00,-568.00,16768.00,0.06,-0.31,10.12,66.00,22.00,30.00,0.07,0.14,-0.08,160,194,186 ,
2796,168.00,-628.00,16904.00,0.03,-0.36,10.11,66.00,17.00,31.00,0.01,0.07,-0.02,163,192,190 ,
3496,112.00,-576.00,16932.00,0.04,-0.37,10.11,66.00,21.00,32.00,0.01,0.07,-0.02,161,191,192 ,
4196,188.00,-660.00,16772.00,0.10,-0.33,10.01,66.00,18.00,32.00,0.01,0.01,-0.26,165,193,197 ,
4896,108.00,-516.00,16716.00,0.07,-0.31,10.11,63.00,19.00,30.00,-0.11,-0.05,-0.02,166,192,202 ,
5595,196.00,-596.00,16816.00,0.10,-0.34,10.13,67.00,19.00,29.00,0.01,-0.05,-0.02,168,192,207 ,
6296,76.00,-528.00,16848.00,0.07,-0.31,10.11,64.00,22.00,30.00,-0.05,-0.11,-0.26,171,193,209 ,
6995,172.00,-624.00,17024.00,0.12,-0.34,10.09,66.00,18.00,32.00,0.07,-0.11,-0.14,167,193,209 ,
7696,88.00,-636.00,16712.00,0.07,-0.37,10.05,66.00,19.00,33.00,-0.11,-0.17,0.10,171,192,210 ,
8395,152.00,-572.00,16704.00,0.07,-0.36,10.12,64.00,18.00,31.00,-0.05,0.07,-0.08,168,191,211 ,
9095,148.00,-572.00,16812.00,0.08,-0.36,10.09,67.00,17.00,32.00,0.01,-0.11,-0.02,168,198,212 ,
9796,108.00,-652.00,16948.00,0.08,-0.33,10.07,66.00,17.00,32.00,-0.17,-0.05,0.04,167,195,211 ,
10495,136.00,-520.00,16668.00,0.03,-0.32,10.10,68.00,20.00,32.00,0.01,0.07,0.04,166,196,211 ,
button pressed
696,144.00,-544.00,16708.00,0.08,-0.37,10.06,67.00,19.00,31.00,0.07,0.14,0.04,166,198,196 ,
1396,136.00,-596.00,16788.00,0.12,-0.37,9.95,67.00,20.00,32.00,0.01,0.01,-0.14,165,195,196 ,
2096,116.00,-592.00,16828.00,0.12,-0.30,10.09,64.00,21.00,32.00,0.01,-0.17,0.10,160,193,196 ,
2795,-4.00,-584.00,16816.00,-0.01,-0.35,10.11,68.00,18.00,30.00,0.07,-0.05,0.04,161,195,196 ,
3496,116.00,-580.00,16708.00,0.07,-0.33,10.11,64.00,19.00,34.00,-0.11,0.07,-0.14,161,193,195 ,
4196,180.00,-620.00,16848.00,0.08,-0.35,10.07,67.00,19.00,32.00,0.07,0.01,0.23,161,192,192 ,
4896,136.00,-624.00,16828.00,0.11,-0.34,10.07,66.00,19.00,31.00,-0.05,-0.05,-0.08,163,192,196 ,
5596,76.00,-476.00,16828.00,0.04,-0.32,10.05,65.00,20.00,31.00,-0.05,0.07,-0.08,163,191,196 ,
6295,244.00,-600.00,16776.00,0.11,-0.36,10.07,61.00,17.00,31.00,-0.23,0.07,0.04,163,190,195 ,
6996,132.00,-604.00,17032.00,0.09,-0.38,10.04,66.00,20.00,31.00,-0.05,0.07,0.17,163,188,193 ,
7695,172.00,-588.00,16652.00,0.13,-0.38,10.03,66.00,19.00,31.00,0.07,-0.11,0.17,160,186,192 ,
8396,156.00,-540.00,16940.00,0.05,-0.33,10.03,66.00,21.00,31.00,-0.05,0.14,-0.02,162,187,193 ,
9095,164.00,-612.00,16996.00,0.10,-0.34,10.08,66.00,19.00,31.00,0.01,-0.11,-0.08,158,189,192 ,
9795,180.00,-596.00,16864.00,0.15,-0.37,10.05,65.00,18.00,27.00,0.01,0.01,-0.02,161,190,193 ,
10495,188.00,-576.00,16868.00,0.13,-0.33,10.13,66.00,17.00,31.00,-0.05,-0.05,-0.02,159,188,193 ,
button pressed
696,108.00,-644.00,17008.00,0.05,-0.39,10.07,65.00,20.00,29.00,0.19,0.07,-0.02,158,184,186 ,
1396,200.00,-580.00,16764.00,0.13,-0.35,10.05,68.00,21.00,31.00,0.01,-0.11,-0.14,159,185,189 ,
2095,132.00,-612.00,16944.00,0.14,-0.34,10.06,66.00,19.00,32.00,0.07,-0.05,-0.02,156,187,191 ,
2796,68.00,-560.00,16768.00,0.10,-0.31,10.00,65.00,16.00,32.00,-0.05,0.01,0.17,158,189,191 ,
3495,64.00,-560.00,16876.00,0.07,-0.35,10.07,66.00,18.00,29.00,0.01,0.01,-0.20,160,187,192 ,
4196,240.00,-532.00,16760.00,0.09,-0.33,10.04,66.00,18.00,31.00,-0.05,0.01,-0.14,162,187,192 ,
4895,132.00,-512.00,16760.00,0.16,-0.28,10.00,67.00,20.00,31.00,0.13,0.07,-0.08,159,187,194 ,
5595,92.00,-612.00,16752.00,0.05,-0.37,10.06,66.00,19.00,31.00,-0.05,0.07,0.10,160,185,196 ,
6295,184.00,-544.00,16828.00,0.03,-0.36,10.16,65.00,17.00,34.00,0.07,0.01,0.10,164,185,196 ,
6995,108.00,-592.00,16848.00,0.02,-0.33,10.20,65.00,17.00,32.00,0.01,-0.11,0.10,161,187,197 ,
7696,116.00,-640.00,16716.00,0.08,-0.34,10.07,65.00,21.00,31.00,0.01,0.01,-0.02,163,187,197 ,
8395,140.00,-572.00,16936.00,0.08,-0.34,10.08,65.00,19.00,33.00,0.01,-0.11,0.04,163,187,198 ,
9095,232.00,-488.00,16664.00,0.10,-0.29,9.98,64.00,20.00,32.00,0.01,0.20,-0.02,160,184,197 ,
9795,152.00,-548.00,16940.00,0.11,-0.36,10.03,66.00,20.00,33.00,-0.05,-0.11,-0.02,164,190,200 ,
10495,16.00,-584.00,16876.00,0.07,-0.36,10.00,66.00,19.00,33.00,0.01,-0.05,0.10,161,190,201 ,
button pressed
696,228.00,-572.00,16864.00,0.12,-0.35,9.93,66.00,19.00,33.00,-0.11,0.07,0.04,160,181,193 ,
1395,120.00,-572.00,16840.00,0.06,-0.34,10.13,66.00,21.00,33.00,0.13,0.07,0.04,160,192,199 ,
2096,92.00,-612.00,17036.00,0.09,-0.38,10.14,65.00,17.00,32.00,0.01,-0.11,-0.08,163,196,206 ,
2796,84.00,-584.00,16804.00,0.02,-0.28,9.97,67.00,19.00,31.00,0.07,0.01,-0.08,164,196,210 ,
3496,144.00,-592.00,16852.00,0.13,-0.39,9.99,65.00,19.00,30.00,-0.05,-0.11,0.10,164,197,213 ,
4196,200.00,-640.00,16852.00,0.10,-0.34,10.03,66.00,19.00,31.00,0.01,0.14,-0.14,166,196,215 ,
4895,92.00,-592.00,16980.00,0.06,-0.35,10.13,64.00,21.00,31.00,-0.23,0.07,-0.08,169,195,216 ,
5596,252.00,-660.00,16884.00,0.13,-0.41,10.09,66.00,20.00,30.00,0.01,0.01,0.10,167,194,215 ,
6295,100.00,-540.00,16776.00,0.03,-0.31,10.03,65.00,16.00,32.00,-0.11,-0.23,-0.08,166,193,217 ,
6996,160.00,-560.00,16832.00,0.08,-0.34,10.03,66.00,18.00,31.00,0.01,0.01,-0.08,166,192,218 ,
7695,192.00,-536.00,16872.00,0.12,-0.33,10.17,65.00,20.00,30.00,-0.05,-0.11,-0.20,170,192,218 ,
8395,228.00,-596.00,16752.00,0.08,-0.36,10.15,68.00,19.00,30.00,0.19,0.01,0.04,173,189,219 ,
9095,120.00,-656.00,16880.00,0.08,-0.37,10.13,65.00,18.00,34.00,-0.11,-0.11,0.04,169,192,220 ,
9795,220.00,-560.00,16884.00,0.12,-0.30,10.07,63.00,20.00,30.00,-0.05,0.07,-0.08,166,192,219 ,
10495,132.00,-552.00,16848.00,0.08,-0.36,10.04,66.00,17.00,31.00,0.01,-0.17,0.10,172,193,219 ,
button pressed
697,232.00,-660.00,16816.00,0.07,-0.33,10.11,65.00,21.00,33.00,-0.11,0.14,0.04,168,204,209 ,
1396,160.00,-488.00,16780.00,0.15,-0.34,10.04,64.00,18.00,33.00,-0.11,0.07,0.04,167,194,209 ,
2097,92.00,-628.00,16728.00,0.03,-0.33,10.08,68.00,19.00,30.00,0.13,-0.05,-0.08,167,194,206 ,
2796,172.00,-560.00,16784.00,0.10,-0.33,10.04,69.00,17.00,31.00,0.01,-0.11,0.10,166,191,209 ,
3496,136.00,-624.00,16760.00,0.08,-0.30,10.05,65.00,19.00,30.00,0.07,0.26,-0.02,166,192,208 ,
4196,120.00,-636.00,16864.00,0.12,-0.34,10.08,64.00,23.00,32.00,-0.05,0.20,0.04,167,157,192 ,
4896,104.00,-572.00,16700.00,0.11,-0.36,10.05,67.00,20.00,33.00,0.07,0.07,0.10,164,242,220 ,
5596,200.00,-576.00,16780.00,0.07,-0.33,9.97,65.00,18.00,30.00,-0.05,0.01,-0.26,166,221,215 ,
6296,148.00,-540.00,16912.00,0.07,-0.31,10.08,63.00,22.00,31.00,-0.11,0.14,0.04,166,207,212 ,
6995,56.00,-584.00,16828.00,0.06,-0.32,10.06,63.00,15.00,32.00,-0.17,-0.11,0.17,171,203,214 ,
7696,196.00,-500.00,16856.00,0.08,-0.29,10.11,64.00,20.00,31.00,-0.11,-0.05,0.04,170,199,219 ,
8395,196.00,-556.00,16920.00,0.10,-0.34,10.09,64.00,17.00,32.00,-0.05,-0.05,-0.02,174,200,224 ,
9096,84.00,-624.00,16748.00,0.05,-0.37,10.14,68.00,22.00,30.00,-0.05,0.07,0.04,175,198,227 ,
9795,176.00,-588.00,16876.00,0.08,-0.35,10.07,66.00,20.00,31.00,0.07,0.01,0.04,178,194,227 ,
10495,112.00,-568.00,16856.00,0.10,-0.30,10.08,63.00,22.00,31.00,-0.05,0.20,0.04,173,192,226 ,
button pressed
696,164.00,-560.00,16656.00,0.04,-0.32,9.98,65.00,20.00,31.00,-0.05,0.07,-0.02,172,221,210 ,
1396,108.00,-632.00,16776.00,0.11,-0.35,10.06,65.00,17.00,33.00,-0.05,0.01,0.04,167,205,207 ,
2095,96.00,-508.00,16904.00,0.12,-0.41,10.04,66.00,21.00,34.00,0.07,0.07,0.29,170,202,205 ,
2796,184.00,-664.00,16676.00,0.10,-0.36,10.01,66.00,17.00,33.00,0.07,-0.05,0.10,170,198,205 ,
3495,160.00,-588.00,16872.00,0.09,-0.40,10.15,66.00,23.00,33.00,-0.05,0.26,-0.02,170,199,206 ,
4196,180.00,-596.00,16792.00,0.10,-0.34,10.08,68.00,19.00,32.00,0.13,-0.11,-0.02,173,198,208 ,
4895,204.00,-628.00,16876.00,0.09,-0.33,10.15,64.00,16.00,31.00,-0.11,-0.05,-0.02,169,198,208 ,
5595,144.00,-636.00,16772.00,0.07,-0.38,9.98,65.00,18.00,28.00,-0.17,-0.17,-0.08,173,197,208 ,
6295,248.00,-592.00,16732.00,0.13,-0.34,10.04,67.00,16.00,30.00,0.01,0.14,-0.02,168,195,206 ,
6995,268.00,-448.00,16860.00,0.13,-0.27,10.11,66.00,18.00,30.00,0.13,0.07,0.10,171,193,206 ,
7695,204.00,-612.00,16884.00,0.13,-0.37,10.06,65.00,19.00,30.00,-0.23,0.01,-0.08,171,190,205 ,
8395,116.00,-628.00,16860.00,0.10,-0.39,10.02,62.00,17.00,31.00,-0.11,-0.05,0.04,170,193,205 ,
9096,108.00,-568.00,16772.00,0.03,-0.35,10.04,65.00,19.00,34.00,0.07,-0.11,0.10,169,194,206 ,
9795,164.00,-628.00,16856.00,0.12,-0.36,10.11,66.00,18.00,30.00,0.01,0.01,0.10,169,194,205 ,
10495,128.00,-656.00,16912.00,0.07,-0.36,10.03,64.00,17.00,30.00,-0.17,-0.11,-0.08,172,195,205 ,
button pressed
696,132.00,-632.00,16824.00,0.10,-0.37,10.07,66.00,19.00,30.00,0.07,0.01,0.04,172,201,203 ,
1396,136.00,-520.00,16904.00,0.02,-0.32,10.09,66.00,19.00,30.00,-0.05,0.07,-0.02,170,196,204 ,
2096,76.00,-596.00,16820.00,0.08,-0.35,10.04,67.00,18.00,34.00,-0.05,0.01,0.10,168,193,203 ,
2796,172.00,-588.00,16948.00,0.10,-0.34,10.10,65.00,20.00,30.00,-0.05,0.07,-0.08,172,194,205 ,
3496,148.00,-584.00,16816.00,0.07,-0.30,10.10,67.00,18.00,33.00,0.19,0.01,0.10,170,204,207 ,
4195,156.00,-572.00,16884.00,0.12,-0.36,10.04,66.00,20.00,37.00,-0.11,-0.11,0.10,170,220,212 ,
4896,160.00,-628.00,16736.00,0.12,-0.36,10.04,64.00,18.00,33.00,-0.11,-0.05,-0.02,171,212,212 ,
5595,52.00,-600.00,16832.00,0.06,-0.35,10.13,65.00,19.00,30.00,-0.17,0.07,-0.02,172,209,211 ,
6296,132.00,-608.00,17072.00,0.05,-0.30,10.16,66.00,18.00,30.00,0.07,0.07,0.04,172,206,206 ,
6995,156.00,-588.00,16856.00,0.09,-0.33,10.02,66.00,20.00,33.00,-0.17,-0.11,-0.02,171,202,210 ,
7695,172.00,-656.00,16848.00,0.11,-0.39,10.15,64.00,20.00,31.00,-0.17,0.01,0.10,175,202,213 ,
8395,108.00,-536.00,16716.00,0.12,-0.27,10.01,69.00,18.00,29.00,0.07,0.01,-0.14,175,201,212 ,
9095,104.00,-624.00,16800.00,0.10,-0.33,10.07,63.00,20.00,31.00,0.01,0.07,0.10,175,199,211 ,
9795,136.00,-564.00,16900.00,0.16,-0.31,10.09,66.00,17.00,33.00,-0.05,0.14,-0.02,173,197,212 ,
10495,136.00,-576.00,17004.00,0.06,-0.33,10.15,69.00,18.00,32.00,0.13,0.01,0.10,172,197,210 ,
button pressed
695,112.00,-564.00,16840.00,0.02,-0.34,10.10,67.00,16.00,33.00,0.07,-0.23,0.04,168,187,189 ,
1396,176.00,-616.00,16748.00,0.13,-0.37,10.04,66.00,17.00,31.00,0.01,-0.17,-0.14,167,194,194 ,
2095,156.00,-520.00,16952.00,0.05,-0.38,10.10,64.00,21.00,32.00,-0.17,0.07,-0.02,164,195,196 ,
2795,216.00,-568.00,16912.00,0.08,-0.38,10.08,64.00,18.00,31.00,0.01,0.01,0.10,166,196,200 ,
3495,228.00,-544.00,16812.00,0.15,-0.34,10.06,68.00,20.00,32.00,0.13,0.20,-0.02,169,196,202 ,
4195,132.00,-532.00,17000.00,0.07,-0.33,10.10,64.00,18.00,33.00,0.01,0.07,-0.08,168,194,203 ,
4895,20.00,-556.00,16764.00,0.05,-0.37,10.04,65.00,17.00,31.00,0.13,-0.17,0.23,166,196,207 ,
5595,208.00,-608.00,16896.00,0.13,-0.34,10.05,65.00,21.00,32.00,-0.17,0.01,0.10,170,194,208 ,
6294,96.00,-536.00,16844.00,0.10,-0.33,10.03,67.00,18.00,27.00,-0.05,-0.11,-0.02,173,194,213 ,
6995,72.00,-572.00,16824.00,0.03,-0.35,10.03,65.00,15.00,32.00,-0.05,-0.11,-0.02,175,194,217 ,
7694,96.00,-576.00,16920.00,0.06,-0.34,10.12,66.00,18.00,30.00,0.07,0.07,-0.20,172,192,219 ,
8395,160.00,-520.00,16804.00,0.14,-0.34,10.10,68.00,20.00,34.00,0.13,-0.17,0.10,177,193,218 ,
9094,64.00,-612.00,16864.00,0.04,-0.41,10.02,66.00,18.00,31.00,0.07,-0.17,0.04,176,194,220 ,
9794,88.00,-532.00,16820.00,0.11,-0.38,10.04,64.00,20.00,31.00,-0.11,0.07,-0.02,181,198,226 ,
10494,160.00,-492.00,16792.00,0.13,-0.32,10.07,67.00,16.00,32.00,0.13,-0.11,0.04,184,199,231 ,
button pressed
696,160.00,-648.00,16852.00,0.15,-0.35,10.11,66.00,21.00,32.00,0.13,0.14,-0.02,174,205,207 ,
1396,100.00,-608.00,16808.00,0.09,-0.37,10.08,66.00,18.00,30.00,-0.05,0.01,-0.02,174,200,206 ,
2096,184.00,-568.00,16724.00,0.11,-0.36,10.06,68.00,21.00,30.00,0.38,0.01,-0.02,170,198,204 ,
2796,248.00,-584.00,16712.00,0.10,-0.38,10.07,64.00,17.00,30.00,0.07,-0.05,-0.08,174,197,204 ,
3496,160.00,-544.00,16892.00,0.13,-0.35,10.05,67.00,20.00,32.00,0.07,-0.11,0.17,174,197,205 ,
4196,96.00,-552.00,16920.00,0.04,-0.35,10.08,65.00,18.00,30.00,0.01,-0.11,-0.02,175,200,207 ,
4896,72.00,-632.00,16764.00,0.06,-0.33,10.04,64.00,20.00,34.00,-0.17,-0.17,0.17,177,199,207 ,
5596,28.00,-556.00,16856.00,0.06,-0.29,10.08,66.00,22.00,32.00,0.13,0.26,0.10,177,197,208 ,
6296,60.00,-624.00,16948.00,0.04,-0.34,10.12,65.00,18.00,30.00,0.01,-0.05,-0.08,175,197,210 ,
6995,216.00,-632.00,16768.00,0.13,-0.36,9.99,66.00,20.00,33.00,0.07,0.14,-0.02,179,196,210 ,
7696,124.00,-592.00,16760.00,0.06,-0.40,10.02,62.00,19.00,29.00,-0.23,0.07,-0.08,175,196,214 ,
8395,156.00,-608.00,16876.00,0.07,-0.37,10.09,68.00,15.00,30.00,-0.05,0.01,-0.02,176,198,214 ,
9096,204.00,-504.00,16856.00,0.10,-0.35,10.08,66.00,19.00,31.00,0.13,0.07,-0.02,179,199,213 ,
9795,280.00,-536.00,16800.00,0.19,-0.37,10.08,63.00,20.00,33.00,-0.11,0.07,0.23,179,200,212 ,
10495,48.00,-576.00,16788.00,0.10,-0.41,10.05,67.00,19.00,32.00,-0.05,-0.11,-0.08,179,199,209 ,
button pressed
696,104.00,-592.00,16912.00,0.04,-0.38,10.10,65.00,19.00,32.00,-0.05,0.01,-0.02,178,208,211 ,
1396,160.00,-544.00,16824.00,0.11,-0.32,10.08,64.00,21.00,32.00,-0.05,0.07,0.10,175,202,210 ,
2096,156.00,-660.00,16844.00,0.08,-0.37,10.14,68.00,22.00,29.00,0.13,0.26,-0.08,179,199,208 ,
2796,180.00,-604.00,16764.00,0.11,-0.36,10.06,63.00,21.00,32.00,-0.17,0.01,-0.02,175,198,210 ,
3496,228.00,-520.00,16712.00,0.03,-0.33,10.05,64.00,18.00,28.00,-0.17,0.07,-0.02,181,198,211 ,
4196,212.00,-648.00,16824.00,0.06,-0.38,10.09,63.00,17.00,30.00,0.07,0.01,-0.08,182,255,231 ,
4895,152.00,-584.00,16816.00,0.10,-0.39,10.05,62.00,21.00,33.00,-0.05,0.07,0.10,179,248,232 ,
5596,188.00,-700.00,16924.00,0.09,-0.39,10.05,63.00,19.00,31.00,-0.05,-0.05,0.17,181,216,222 ,
6295,172.00,-532.00,16800.00,0.08,-0.33,10.03,63.00,20.00,34.00,0.01,0.01,-0.02,177,208,216 ,
6996,92.00,-564.00,16836.00,0.05,-0.31,10.05,66.00,19.00,28.00,0.01,-0.11,-0.08,177,204,214 ,
7695,280.00,-600.00,16832.00,0.09,-0.39,10.11,66.00,21.00,29.00,-0.05,0.01,-0.02,175,200,214 ,
8395,144.00,-564.00,16880.00,0.09,-0.35,10.13,65.00,18.00,33.00,0.01,0.01,0.04,177,199,213 ,
9095,216.00,-620.00,16840.00,0.14,-0.36,10.05,66.00,19.00,31.00,0.13,0.01,0.04,178,198,213 ,
9795,184.00,-504.00,16836.00,0.09,-0.33,10.09,67.00,17.00,32.00,0.13,0.14,0.17,180,196,214 ,
10495,184.00,-568.00,16772.00,0.16,-0.34,10.07,65.00,18.00,31.00,0.13,0.01,-0.08,181,195,214 ,
button pressed
696,184.00,-568.00,16916.00,0.13,-0.36,10.03,64.00,18.00,30.00,0.01,0.07,-0.02,173,168,186 ,
1396,180.00,-584.00,16788.00,0.09,-0.33,10.06,65.00,17.00,31.00,-0.05,-0.05,-0.08,175,179,192 ,
2096,128.00,-552.00,16844.00,0.06,-0.31,10.10,66.00,16.00,35.00,-0.23,-0.11,0.17,173,183,195 ,
2795,180.00,-564.00,16932.00,0.05,-0.35,10.13,66.00,18.00,32.00,-0.05,-0.05,-0.14,172,185,200 ,
3496,180.00,-488.00,17008.00,0.12,-0.28,10.13,63.00,19.00,33.00,-0.23,0.07,0.17,177,189,204 ,
4195,148.00,-584.00,16776.00,0.07,-0.34,10.04,68.00,17.00,31.00,0.19,-0.23,0.04,180,191,207 ,
4896,152.00,-584.00,16716.00,0.11,-0.37,10.09,66.00,18.00,33.00,-0.17,0.07,-0.02,178,191,212 ,
5595,176.00,-656.00,16920.00,0.08,-0.38,10.18,67.00,21.00,30.00,0.07,0.01,0.04,179,190,215 ,
6295,104.00,-552.00,16820.00,0.09,-0.37,10.16,67.00,22.00,34.00,0.13,0.32,0.04,183,190,216 ,
6995,52.00,-592.00,16880.00,0.09,-0.32,10.04,64.00,20.00,33.00,-0.11,-0.05,-0.08,181,194,220 ,
7695,160.00,-644.00,16768.00,0.05,-0.36,10.05,66.00,19.00,32.00,-0.05,-0.05,0.17,183,192,221 ,
8395,20.00,-544.00,16828.00,0.07,-0.38,10.07,67.00,19.00,34.00,0.07,0.01,0.17,184,193,222 ,
9095,40.00,-572.00,16804.00,0.09,-0.36,10.07,64.00,18.00,32.00,-0.17,-0.11,-0.14,185,192,221 ,
9796,112.00,-504.00,16884.00,0.11,-0.31,10.15,66.00,20.00,31.00,-0.11,0.07,0.10,181,195,218 ,
10495,132.00,-548.00,16844.00,0.07,-0.36,10.02,67.00,21.00,29.00,0.01,0.14,0.04,180,193,217 ,
button pressed
696,168.00,-612.00,16892.00,0.12,-0.33,10.00,64.00,19.00,32.00,-0.05,0.07,-0.02,172,206,199 ,
1397,204.00,-604.00,16820.00,0.11,-0.32,10.12,68.00,21.00,30.00,0.01,0.07,-0.08,174,207,203 ,
2096,176.00,-604.00,16876.00,0.10,-0.34,10.07,64.00,21.00,31.00,-0.05,0.07,-0.02,174,206,208 ,
2797,180.00,-572.00,16784.00,0.13,-0.32,10.04,67.00,18.00,33.00,-0.05,0.01,0.10,175,204,209 ,
3496,80.00,-584.00,16760.00,0.05,-0.35,10.03,65.00,19.00,32.00,0.13,0.01,0.17,177,204,211 ,
4196,104.00,-524.00,16660.00,0.07,-0.34,10.07,67.00,17.00,32.00,0.07,-0.05,-0.02,177,203,212 ,
4896,112.00,-616.00,16988.00,0.12,-0.35,10.08,63.00,17.00,31.00,-0.17,-0.05,-0.02,176,201,212 ,
5596,100.00,-520.00,16892.00,0.04,-0.32,10.14,67.00,22.00,33.00,0.01,0.07,0.17,176,201,212 ,
6296,172.00,-612.00,16920.00,0.13,-0.34,10.09,66.00,17.00,31.00,0.13,-0.05,-0.02,177,202,214 ,
6996,148.00,-556.00,16840.00,0.08,-0.36,10.01,64.00,20.00,30.00,0.07,0.07,0.04,177,198,213 ,
7695,188.00,-560.00,16840.00,0.14,-0.35,10.01,65.00,17.00,36.00,0.07,-0.05,0.10,175,199,213 ,
8396,116.00,-668.00,16820.00,0.04,-0.40,10.05,68.00,18.00,31.00,-0.05,0.07,-0.02,178,199,212 ,
9095,120.00,-600.00,16868.00,0.02,-0.35,10.08,64.00,21.00,30.00,-0.05,0.20,0.17,177,197,213 ,
9796,144.00,-640.00,16832.00,0.11,-0.37,10.05,64.00,21.00,31.00,-0.05,0.01,0.04,175,198,208 ,
10495,68.00,-604.00,16816.00,0.08,-0.35,10.10,64.00,21.00,30.00,-0.11,0.01,-0.02,177,197,211 ,
button pressed
696,152.00,-496.00,16924.00,0.09,-0.32,10.12,66.00,20.00,32.00,-0.05,-0.05,0.10,186,215,225 ,
1395,88.00,-492.00,16972.00,0.08,-0.33,10.12,65.00,20.00,31.00,-0.11,0.07,0.04,184,206,223 ,
2096,44.00,-636.00,16760.00,0.04,-0.32,10.10,65.00,20.00,33.00,-0.05,0.14,-0.02,183,203,222 ,
2795,124.00,-560.00,16916.00,0.09,-0.31,10.12,67.00,22.00,32.00,0.07,0.26,0.17,186,204,220 ,
3496,64.00,-568.00,16724.00,0.05,-0.35,10.07,67.00,20.00,32.00,-0.05,0.07,0.04,185,204,220 ,
4196,140.00,-536.00,16852.00,0.12,-0.37,10.09,66.00,22.00,33.00,0.07,0.07,0.23,182,203,220 ,
4895,180.00,-628.00,16804.00,0.05,-0.39,10.07,67.00,20.00,37.00,-0.17,-0.05,0.17,185,199,221 ,
5596,124.00,-612.00,16860.00,0.11,-0.31,10.11,64.00,16.00,33.00,-0.11,-0.05,0.04,180,201,219 ,
6295,144.00,-632.00,16796.00,0.09,-0.32,9.97,68.00,18.00,32.00,-0.11,-0.05,-0.02,185,198,215 ,
6996,168.00,-596.00,16916.00,0.07,-0.34,10.04,65.00,22.00,33.00,-0.23,0.32,0.10,181,199,216 ,
7695,144.00,-520.00,16840.00,0.12,-0.34,10.05,64.00,16.00,30.00,-0.05,0.14,-0.14,179,201,216 ,
8395,160.00,-552.00,16832.00,0.06,-0.34,10.03,67.00,21.00,31.00,0.01,0.14,0.10,180,200,215 ,
9095,144.00,-620.00,16848.00,0.09,-0.37,10.08,66.00,19.00,34.00,0.13,0.14,-0.02,181,199,214 ,
9795,132.00,-588.00,16860.00,0.07,-0.33,10.16,66.00,20.00,30.00,-0.05,0.14,-0.02,179,200,212 ,
10495,244.00,-528.00,16884.00,0.10,-0.33,10.05,66.00,21.00,29.00,0.07,-0.05,-0.02,179,200,214 ,
button pressed
697,72.00,-560.00,16872.00,0.03,-0.33,10.15,66.00,17.00,35.00,0.01,-0.05,0.17,187,238,232 ,
1396,192.00,-592.00,16824.00,0.02,-0.36,10.05,64.00,18.00,30.00,-0.11,0.07,-0.14,190,211,225 ,
2096,76.00,-556.00,16844.00,0.13,-0.39,10.11,64.00,17.00,31.00,-0.11,-0.05,-0.14,186,201,223 ,
2796,112.00,-572.00,16768.00,0.10,-0.35,10.05,65.00,19.00,30.00,-0.05,0.07,-0.02,186,200,221 ,
3496,144.00,-672.00,16788.00,0.08,-0.34,10.02,66.00,17.00,33.00,-0.05,-0.11,-0.08,189,198,222 ,
4197,96.00,-624.00,16756.00,0.11,-0.38,10.03,65.00,20.00,30.00,0.01,0.14,0.04,187,198,222 ,
4896,156.00,-560.00,16832.00,0.10,-0.32,10.08,64.00,20.00,29.00,-0.05,0.01,0.17,187,197,221 ,
5596,160.00,-584.00,16784.00,0.11,-0.34,10.03,66.00,21.00,33.00,0.01,0.14,-0.02,189,198,222 ,
6296,68.00,-616.00,16916.00,0.09,-0.32,10.11,66.00,20.00,29.00,-0.05,-0.05,-0.14,189,200,221 ,
6996,148.00,-544.00,16808.00,0.07,-0.34,10.04,64.00,21.00,34.00,0.07,0.07,0.10,189,204,221 ,
7696,176.00,-568.00,16796.00,0.13,-0.33,10.03,64.00,19.00,30.00,-0.11,0.01,-0.02,189,213,224 ,
8396,152.00,-528.00,16828.00,0.08,-0.34,9.97,67.00,19.00,33.00,0.19,0.26,0.10,188,210,224 ,
9095,96.00,-568.00,16968.00,0.08,-0.34,10.04,65.00,20.00,31.00,-0.11,0.07,-0.02,188,210,223 ,
9796,144.00,-544.00,16940.00,0.13,-0.30,10.14,66.00,21.00,34.00,-0.05,0.14,0.17,186,211,223 ,
10495,168.00,-464.00,16908.00,0.10,-0.32,10.08,64.00,19.00,32.00,-0.11,0.14,0.10,192,210,223 ,
button pressed
696,240.00,-452.00,16612.00,0.06,-0.33,10.04,64.00,20.00,32.00,0.01,0.07,0.10,190,251,231 ,
1395,176.00,-576.00,16884.00,0.08,-0.36,10.07,69.00,20.00,33.00,0.07,0.07,0.10,188,230,226 ,
2096,128.00,-580.00,16868.00,0.03,-0.41,10.08,66.00,19.00,29.00,0.01,0.01,0.04,189,218,221 ,
2795,204.00,-648.00,16788.00,0.09,-0.39,10.08,66.00,19.00,32.00,0.01,-0.05,-0.02,190,212,219 ,
3495,212.00,-632.00,16916.00,0.11,-0.36,10.06,64.00,17.00,30.00,-0.05,-0.05,0.10,187,218,221 ,
4195,72.00,-660.00,16784.00,0.09,-0.33,10.07,64.00,19.00,31.00,-0.11,-0.05,-0.02,188,221,222 ,
4895,108.00,-644.00,16872.00,0.07,-0.31,10.08,66.00,19.00,31.00,-0.17,0.14,0.04,190,222,224 ,
5596,68.00,-604.00,16816.00,0.03,-0.39,10.09,66.00,17.00,31.00,0.13,-0.05,0.04,189,222,226 ,
6295,128.00,-584.00,16948.00,0.09,-0.31,10.08,64.00,14.00,31.00,-0.05,-0.11,-0.08,193,225,225 ,
6995,132.00,-496.00,16848.00,0.10,-0.33,10.10,62.00,22.00,32.00,-0.11,0.20,0.04,190,225,226 ,
7695,64.00,-572.00,16948.00,0.01,-0.37,10.11,67.00,20.00,33.00,0.01,0.20,0.04,193,231,227 ,
8395,48.00,-556.00,16836.00,0.02,-0.37,10.06,69.00,19.00,30.00,0.13,-0.05,0.04,193,233,229 ,
9095,120.00,-540.00,16768.00,0.09,-0.36,10.05,68.00,23.00,27.00,0.01,0.01,-0.14,195,230,229 ,
9795,72.00,-560.00,16796.00,0.05,-0.36,10.08,66.00,21.00,29.00,0.01,0.01,0.04,193,226,226 ,
10494,164.00,-568.00,16788.00,0.10,-0.35,10.05,67.00,18.00,31.00,0.01,-0.11,0.04,193,223,226 ,
button pressed
696,40.00,-528.00,17112.00,0.08,-0.31,10.13,65.00,18.00,33.00,0.07,-0.11,0.10,186,217,206 ,
1396,184.00,-544.00,16748.00,0.11,-0.33,10.07,66.00,18.00,33.00,-0.11,0.07,-0.08,186,209,204 ,
2095,96.00,-572.00,16816.00,0.05,-0.37,10.10,65.00,16.00,31.00,-0.05,-0.05,-0.02,185,205,204 ,
2796,204.00,-540.00,16660.00,0.06,-0.34,10.08,63.00,18.00,32.00,-0.05,0.26,-0.26,185,205,203 ,
3496,64.00,-656.00,16812.00,0.03,-0.33,10.04,67.00,19.00,33.00,0.07,-0.05,0.17,184,204,205 ,
4196,72.00,-652.00,16872.00,0.04,-0.32,10.05,65.00,20.00,30.00,0.07,-0.05,0.04,189,204,207 ,
4896,144.00,-672.00,16860.00,0.11,-0.36,10.07,63.00,18.00,28.00,-0.17,-0.05,-0.02,190,206,210 ,
5595,168.00,-616.00,16916.00,0.06,-0.32,10.12,64.00,21.00,31.00,-0.05,0.07,-0.14,189,204,211 ,
6296,84.00,-684.00,16840.00,0.07,-0.39,10.08,64.00,19.00,32.00,-0.11,0.01,-0.02,187,203,210 ,
6995,224.00,-576.00,16768.00,0.10,-0.34,10.09,67.00,19.00,32.00,0.07,0.01,-0.02,187,204,207 ,
7696,192.00,-640.00,16864.00,0.07,-0.35,10.07,66.00,20.00,32.00,-0.17,0.07,0.04,186,202,207 ,
8395,180.00,-496.00,16880.00,0.06,-0.37,10.04,63.00,21.00,35.00,0.01,0.01,0.17,188,203,203 ,
9096,160.00,-548.00,16868.00,0.08,-0.33,10.16,64.00,20.00,31.00,0.01,0.14,-0.02,188,205,206 ,
9795,116.00,-596.00,16864.00,0.10,-0.31,10.08,65.00,21.00,31.00,-0.05,0.20,0.04,189,204,206 ,
10495,216.00,-520.00,16828.00,0.07,-0.33,10.05,69.00,18.00,33.00,0.25,0.07,0.04,187,206,206 ,
button pressed
695,120.00,-540.00,16772.00,0.06,-0.42,10.09,65.00,15.00,30.00,-0.05,-0.17,0.04,179,185,183 ,
1396,160.00,-576.00,16940.00,0.09,-0.37,10.13,63.00,21.00,31.00,-0.11,0.01,-0.08,181,185,184 ,
2095,184.00,-560.00,16780.00,0.02,-0.30,9.96,66.00,21.00,31.00,0.01,0.14,-0.02,179,187,184 ,
2796,12.00,-560.00,17000.00,0.06,-0.32,10.10,66.00,19.00,34.00,0.01,0.01,0.17,179,189,181 ,
3495,120.00,-564.00,16892.00,0.10,-0.33,10.12,64.00,20.00,33.00,0.01,0.07,-0.02,177,188,181 ,
4195,128.00,-644.00,16820.00,0.04,-0.37,10.18,67.00,19.00,34.00,0.07,0.01,-0.02,178,186,179 ,
4896,144.00,-528.00,16892.00,0.07,-0.34,10.06,64.00,20.00,30.00,-0.11,0.07,-0.08,176,185,179 ,
5595,120.00,-644.00,16844.00,0.11,-0.34,10.13,65.00,16.00,32.00,0.01,-0.05,0.10,170,184,179 ,
6296,108.00,-540.00,16872.00,0.05,-0.34,10.12,67.00,19.00,30.00,-0.11,0.07,-0.20,178,187,181 ,
6995,52.00,-672.00,16816.00,0.09,-0.37,10.11,64.00,19.00,28.00,0.01,-0.05,0.04,176,185,180 ,
7695,196.00,-508.00,16876.00,0.12,-0.30,10.10,64.00,21.00,32.00,-0.11,0.20,0.10,179,187,184 ,
8395,140.00,-576.00,16832.00,0.06,-0.34,9.97,66.00,18.00,31.00,0.01,0.01,-0.02,181,190,189 ,
9095,184.00,-612.00,16720.00,0.05,-0.38,10.08,66.00,21.00,31.00,0.01,0.14,-0.08,182,190,192 ,
9795,224.00,-568.00,16892.00,0.07,-0.34,10.14,66.00,21.00,34.00,0.01,0.07,0.29,181,198,196 ,
10495,68.00,-536.00,16788.00,0.05,-0.35,10.06,64.00,20.00,33.00,-0.05,0.07,-0.14,182,196,200 ,
button pressed
696,104.00,-612.00,16740.00,0.08,-0.39,10.01,65.00,20.00,31.00,0.01,0.20,0.04,189,205,216 ,
1396,148.00,-672.00,17024.00,0.17,-0.35,10.13,65.00,17.00,32.00,0.01,0.01,-0.14,189,209,219 ,
2096,180.00,-516.00,16676.00,0.14,-0.32,9.95,66.00,17.00,33.00,0.01,-0.11,-0.08,189,209,224 ,
2795,132.00,-536.00,16756.00,0.03,-0.36,10.07,65.00,18.00,31.00,0.01,-0.11,-0.14,189,205,222 ,
3496,96.00,-520.00,16792.00,0.00,-0.35,10.06,67.00,18.00,32.00,0.01,0.14,-0.08,186,204,222 ,
4195,144.00,-696.00,16960.00,0.09,-0.36,10.12,65.00,17.00,31.00,-0.11,-0.11,-0.02,191,204,220 ,
4896,224.00,-552.00,16844.00,0.16,-0.30,9.98,65.00,19.00,31.00,0.07,0.01,-0.14,193,204,222 ,
5595,112.00,-568.00,16840.00,0.05,-0.31,10.02,65.00,22.00,30.00,0.13,0.07,0.04,193,205,219 ,
6295,84.00,-592.00,16820.00,0.13,-0.30,10.13,64.00,16.00,33.00,-0.05,-0.05,0.04,190,206,217 ,
6995,120.00,-616.00,16816.00,0.08,-0.35,10.01,68.00,22.00,31.00,-0.11,0.20,0.04,191,206,219 ,
7695,148.00,-536.00,16720.00,0.11,-0.42,10.04,64.00,20.00,29.00,-0.05,-0.05,-0.08,195,205,219 ,
8395,112.00,-456.00,16720.00,0.02,-0.31,10.02,71.00,18.00,30.00,0.19,-0.11,0.04,190,205,218 ,
9095,188.00,-620.00,16756.00,0.14,-0.32,10.00,67.00,18.00,30.00,0.01,0.20,-0.08,190,206,218 ,
9795,108.00,-596.00,17020.00,0.11,-0.36,10.08,64.00,21.00,31.00,0.01,0.14,-0.08,193,205,217 ,
10495,116.00,-536.00,16924.00,0.08,-0.37,10.08,65.00,20.00,33.00,-0.23,-0.05,-0.02,191,204,217 ,
button pressed
696,24.00,-564.00,16860.00,0.05,-0.32,9.97,67.00,21.00,34.00,-0.11,0.07,0.10,190,207,207 ,
1395,84.00,-488.00,17016.00,0.05,-0.32,10.09,68.00,21.00,30.00,0.01,0.07,-0.08,189,205,208 ,
2096,184.00,-576.00,16824.00,0.08,-0.35,9.97,63.00,19.00,32.00,-0.23,-0.05,-0.08,191,205,208 ,
2795,192.00,-600.00,16868.00,0.12,-0.35,10.03,67.00,17.00,31.00,0.19,-0.05,-0.08,189,204,209 ,
3496,180.00,-676.00,16820.00,0.08,-0.38,10.09,67.00,20.00,31.00,0.13,-0.11,0.04,192,203,211 ,
4195,164.00,-528.00,16844.00,0.13,-0.36,10.11,66.00,15.00,31.00,0.07,-0.17,0.04,193,203,213 ,
4895,116.00,-572.00,16980.00,0.07,-0.34,10.16,65.00,16.00,29.00,-0.05,-0.05,-0.14,193,204,212 ,
5596,224.00,-624.00,16728.00,0.07,-0.38,10.15,65.00,19.00,32.00,-0.05,0.14,-0.02,193,204,213 ,
6295,64.00,-580.00,16740.00,0.07,-0.38,10.11,66.00,20.00,31.00,0.13,-0.05,-0.08,190,205,212 ,
6996,184.00,-572.00,16840.00,0.13,-0.33,10.12,67.00,19.00,33.00,0.13,-0.05,0.10,189,201,209 ,
7695,184.00,-616.00,16932.00,0.09,-0.33,10.16,67.00,18.00,32.00,0.07,-0.05,-0.02,190,203,208 ,
8395,116.00,-520.00,16836.00,0.05,-0.28,10.03,64.00,21.00,33.00,-0.11,0.20,0.17,190,206,210 ,
9095,112.00,-516.00,16884.00,0.05,-0.36,10.11,67.00,20.00,32.00,-0.05,0.01,-0.02,191,206,210 ,
9795,268.00,-632.00,16948.00,0.06,-0.28,10.02,65.00,17.00,33.00,-0.11,-0.11,0.10,190,206,210 ,
10495,236.00,-588.00,16860.00,0.12,-0.33,9.98,65.00,20.00,32.00,-0.05,-0.11,-0.08,188,204,210 ,
button pressed
697,184.00,-484.00,16756.00,0.04,-0.29,9.99,63.00,18.00,32.00,-0.05,0.01,0.04,192,218,212 ,
1396,168.00,-488.00,16832.00,0.10,-0.32,10.07,67.00,18.00,30.00,0.13,-0.05,-0.14,194,211,217 ,
2096,120.00,-628.00,16812.00,0.05,-0.35,10.01,65.00,18.00,33.00,0.01,-0.05,0.10,192,210,222 ,
2796,256.00,-540.00,16900.00,0.06,-0.38,10.10,67.00,19.00,31.00,0.19,-0.05,0.04,199,210,225 ,
3496,92.00,-484.00,16896.00,0.03,-0.33,10.03,65.00,19.00,30.00,0.07,-0.05,0.04,194,207,224 ,
4196,76.00,-608.00,16872.00,0.02,-0.37,10.05,67.00,17.00,31.00,-0.05,-0.05,0.10,195,209,226 ,
4896,160.00,-640.00,16764.00,0.11,-0.29,10.04,64.00,16.00,33.00,-0.05,0.01,0.10,199,207,227 ,
5595,144.00,-528.00,16960.00,0.09,-0.36,10.03,67.00,19.00,33.00,-0.11,-0.05,0.10,200,208,231 ,
6296,164.00,-652.00,16852.00,0.06,-0.42,10.10,67.00,19.00,31.00,-0.05,0.01,-0.02,198,209,232 ,
6995,168.00,-644.00,16876.00,0.13,-0.36,10.12,67.00,20.00,31.00,-0.11,0.01,0.17,198,211,231 ,
7696,160.00,-612.00,16840.00,0.11,-0.37,10.17,68.00,20.00,31.00,0.07,0.01,-0.02,196,210,229 ,
8395,192.00,-508.00,16880.00,0.10,-0.32,10.12,66.00,21.00,28.00,-0.11,0.14,-0.14,200,211,226 ,
9096,192.00,-620.00,16904.00,0.10,-0.34,10.12,65.00,22.00,31.00,-0.11,0.14,-0.02,198,210,228 ,
9795,232.00,-504.00,16756.00,0.12,-0.39,10.06,63.00,20.00,32.00,-0.23,0.07,0.04,200,212,229 ,
10495,84.00,-576.00,16856.00,0.05,-0.39,10.10,67.00,18.00,33.00,0.19,0.07,0.10,200,212,228 ,
button pressed
695,84.00,-544.00,16884.00,0.08,-0.28,10.10,65.00,20.00,31.00,-0.05,0.01,-0.08,197,218,221 ,
1395,112.00,-540.00,16892.00,0.04,-0.33,10.10,64.00,19.00,34.00,-0.17,0.01,0.17,197,214,221 ,
2095,104.00,-632.00,16732.00,0.07,-0.37,9.99,68.00,19.00,31.00,0.07,0.01,-0.14,198,212,220 ,
2795,192.00,-552.00,16968.00,0.08,-0.31,10.09,65.00,18.00,32.00,0.01,0.01,-0.02,198,210,220 ,
3496,76.00,-636.00,16780.00,0.09,-0.36,10.08,65.00,19.00,34.00,-0.11,0.01,0.04,196,213,222 ,
4195,116.00,-576.00,16872.00,0.11,-0.38,10.09,66.00,18.00,31.00,-0.11,-0.05,0.04,199,212,223 ,
4896,268.00,-544.00,16916.00,0.07,-0.35,9.99,64.00,19.00,32.00,-0.05,0.07,0.04,201,212,227 ,
5595,180.00,-632.00,16852.00,0.05,-0.34,10.00,64.00,20.00,33.00,-0.29,0.07,-0.02,197,209,227 ,
6295,100.00,-576.00,16940.00,0.06,-0.31,10.14,65.00,21.00,33.00,0.01,0.14,-0.02,197,210,227 ,
6995,124.00,-676.00,16892.00,0.04,-0.41,10.03,68.00,20.00,32.00,0.07,0.07,-0.02,201,210,227 ,
7695,76.00,-584.00,16776.00,0.05,-0.37,10.09,65.00,18.00,31.00,-0.05,0.07,-0.14,199,210,227 ,
8395,116.00,-500.00,16900.00,0.10,-0.33,10.12,66.00,17.00,27.00,0.07,-0.11,-0.02,196,210,226 ,
9095,196.00,-600.00,16792.00,0.08,-0.34,10.03,67.00,22.00,33.00,-0.05,0.14,-0.08,197,209,226 ,
9794,104.00,-568.00,16780.00,0.11,-0.33,10.06,65.00,16.00,33.00,-0.05,-0.05,0.04,199,209,226 ,
10495,44.00,-600.00,16932.00,0.13,-0.36,10.06,64.00,20.00,30.00,-0.11,0.07,-0.02,198,208,224 ,
button pressed
695,200.00,-512.00,16852.00,0.10,-0.34,10.08,64.00,21.00,32.00,-0.05,0.01,0.10,199,215,222 ,
1395,200.00,-560.00,16884.00,0.12,-0.37,10.16,66.00,19.00,29.00,0.13,0.01,-0.08,199,215,225 ,
2095,72.00,-508.00,16796.00,0.07,-0.32,10.09,66.00,18.00,33.00,-0.11,-0.05,0.17,198,213,225 ,
2795,196.00,-628.00,16760.00,0.09,-0.36,10.12,63.00,17.00,33.00,-0.11,0.01,-0.02,200,212,224 ,
3495,192.00,-584.00,16752.00,0.11,-0.37,10.13,65.00,18.00,30.00,0.01,-0.17,0.04,199,213,226 ,
4195,196.00,-516.00,16888.00,0.12,-0.37,10.10,65.00,18.00,31.00,-0.11,-0.05,0.10,202,213,227 ,
4895,124.00,-628.00,16824.00,0.09,-0.32,10.09,65.00,22.00,32.00,0.01,0.07,-0.08,201,213,230 ,
5595,152.00,-596.00,16840.00,0.07,-0.42,10.15,63.00,16.00,33.00,-0.23,-0.11,-0.14,204,213,229 ,
6295,96.00,-620.00,16748.00,0.09,-0.37,10.06,63.00,20.00,36.00,-0.05,0.07,0.17,202,214,232 ,
6995,108.00,-604.00,16728.00,0.08,-0.35,10.11,69.00,19.00,33.00,0.01,-0.05,0.10,203,212,230 ,
7695,188.00,-584.00,16876.00,0.12,-0.33,10.05,66.00,20.00,31.00,0.13,-0.05,-0.08,200,212,231 ,
8394,120.00,-520.00,16856.00,0.10,-0.32,10.07,67.00,19.00,31.00,0.19,-0.05,0.04,200,210,232 ,
9095,164.00,-592.00,16804.00,0.11,-0.36,10.09,65.00,18.00,32.00,0.13,0.07,0.10,205,212,230 ,
9794,196.00,-536.00,16836.00,0.14,-0.35,10.02,66.00,19.00,33.00,0.01,0.07,-0.02,205,212,229 ,
10495,136.00,-532.00,16860.00,0.08,-0.35,10.12,65.00,22.00,31.00,-0.11,0.07,-0.02,201,211,230 ,
button pressed
696,148.00,-520.00,16792.00,0.09,-0.34,10.10,67.00,20.00,31.00,-0.05,0.01,-0.02,193,235,217 ,
1395,108.00,-612.00,16732.00,0.06,-0.36,10.01,66.00,17.00,29.00,0.01,0.01,0.04,198,224,216 ,
2096,160.00,-544.00,16908.00,0.06,-0.32,10.09,64.00,20.00,32.00,-0.17,-0.11,-0.02,198,219,215 ,
2795,168.00,-532.00,16916.00,0.06,-0.31,10.10,67.00,20.00,32.00,0.07,0.01,0.04,198,218,216 ,
3496,152.00,-624.00,16968.00,0.04,-0.40,10.13,67.00,18.00,31.00,0.01,0.07,0.04,197,216,215 ,
4195,92.00,-580.00,16728.00,0.10,-0.34,10.04,66.00,21.00,33.00,0.07,0.01,-0.02,198,216,216 ,
4895,128.00,-520.00,16840.00,0.09,-0.32,10.05,68.00,19.00,29.00,0.19,-0.05,-0.14,199,212,214 ,
5595,104.00,-600.00,16876.00,0.14,-0.33,10.11,67.00,21.00,30.00,0.13,0.01,-0.14,196,214,214 ,
6295,108.00,-440.00,16808.00,0.05,-0.29,10.07,65.00,16.00,32.00,-0.17,-0.11,0.04,196,213,211 ,
6995,180.00,-544.00,17012.00,0.11,-0.33,10.18,66.00,22.00,29.00,0.07,0.01,0.04,195,211,210 ,
7695,108.00,-560.00,16768.00,0.10,-0.29,10.03,65.00,20.00,32.00,0.01,0.14,0.17,197,213,214 ,
8394,140.00,-592.00,16856.00,0.07,-0.35,10.10,65.00,18.00,32.00,-0.05,0.07,0.10,196,215,214 ,
9095,32.00,-532.00,16792.00,-0.00,-0.36,10.15,65.00,20.00,30.00,-0.11,0.20,0.10,198,213,213 ,
9794,56.00,-620.00,16768.00,0.08,-0.33,10.06,62.00,19.00,30.00,-0.11,0.07,-0.14,196,216,213 ,
10495,56.00,-612.00,16980.00,0.05,-0.33,10.13,66.00,17.00,31.00,-0.17,-0.05,0.04,196,213,213 ,
button pressed
696,164.00,-624.00,16800.00,0.13,-0.35,10.03,64.00,19.00,32.00,0.07,0.07,0.04,195,212,219 ,
1396,168.00,-620.00,17060.00,0.07,-0.34,10.15,64.00,19.00,32.00,-0.05,0.07,0.10,197,217,221 ,
2095,84.00,-544.00,16756.00,0.06,-0.27,10.09,68.00,17.00,31.00,0.07,-0.11,0.04,198,212,220 ,
2796,256.00,-636.00,16788.00,0.12,-0.36,10.06,66.00,19.00,35.00,-0.05,-0.11,0.04,195,213,219 ,
3495,72.00,-536.00,16696.00,0.11,-0.26,10.11,65.00,17.00,30.00,-0.11,0.01,-0.02,196,223,223 ,
4196,108.00,-572.00,16672.00,0.06,-0.33,9.99,63.00,17.00,33.00,-0.05,0.01,-0.02,198,222,224 ,
4895,128.00,-504.00,16904.00,0.04,-0.32,10.05,67.00,18.00,32.00,-0.05,0.07,0.04,196,218,223 ,
5595,196.00,-628.00,16716.00,0.09,-0.38,10.02,65.00,21.00,30.00,0.13,0.07,-0.02,197,215,224 ,
6295,172.00,-584.00,16808.00,0.12,-0.33,10.02,66.00,20.00,32.00,-0.11,0.01,-0.08,196,282,246 ,
6995,132.00,-572.00,16824.00,0.10,-0.36,10.13,67.00,20.00,28.00,0.13,0.14,-0.08,197,216,225 ,
7695,116.00,-544.00,16716.00,0.05,-0.33,10.02,67.00,16.00,33.00,0.07,-0.23,0.04,196,215,224 ,
8395,128.00,-604.00,16800.00,0.08,-0.35,10.03,64.00,18.00,34.00,-0.23,0.07,0.10,198,213,223 ,
9094,104.00,-520.00,16740.00,0.06,-0.31,10.01,67.00,19.00,31.00,0.07,0.01,-0.02,196,212,223 ,
9795,132.00,-512.00,16872.00,0.14,-0.31,9.99,66.00,18.00,33.00,-0.11,0.01,0.04,197,219,223 ,
10494,124.00,-544.00,16796.00,0.11,-0.33,10.02,69.00,17.00,31.00,0.07,0.01,-0.14,197,218,225 ,
button pressed
695,112.00,-604.00,16764.00,0.10,-0.37,10.06,68.00,20.00,33.00,0.07,0.26,0.10,197,209,220 ,
1395,176.00,-620.00,16964.00,0.07,-0.39,10.13,70.00,17.00,30.00,0.38,0.07,-0.02,198,204,218 ,
2095,128.00,-572.00,16768.00,0.09,-0.37,10.09,66.00,16.00,30.00,0.01,0.01,-0.08,198,202,217 ,
2795,68.00,-508.00,16788.00,0.09,-0.31,10.07,65.00,21.00,32.00,-0.11,-0.05,0.04,195,205,218 ,
3495,80.00,-656.00,16888.00,0.06,-0.39,10.09,66.00,16.00,31.00,-0.05,-0.11,0.10,199,206,217 ,
4195,120.00,-512.00,16868.00,0.06,-0.29,10.05,65.00,21.00,34.00,-0.05,0.14,0.17,195,207,219 ,
4894,88.00,-644.00,16800.00,0.07,-0.30,9.99,62.00,18.00,30.00,-0.05,-0.23,-0.08,197,217,221 ,
5595,208.00,-620.00,16824.00,0.15,-0.32,10.09,64.00,18.00,30.00,0.01,-0.17,-0.26,194,217,222 ,
6294,252.00,-652.00,17008.00,0.09,-0.31,10.13,64.00,19.00,30.00,-0.05,-0.11,-0.02,195,218,222 ,
6995,172.00,-640.00,16788.00,0.14,-0.34,10.13,65.00,18.00,31.00,-0.11,-0.05,-0.08,195,209,219 ,
7694,144.00,-592.00,16752.00,0.11,-0.36,10.10,64.00,20.00,33.00,-0.17,0.07,-0.02,196,219,222 ,
8394,140.00,-476.00,16824.00,0.11,-0.33,10.06,65.00,21.00,32.00,-0.11,-0.05,0.10,197,215,222 ,
9095,112.00,-576.00,16952.00,0.01,-0.37,10.09,63.00,18.00,31.00,-0.23,-0.05,0.04,198,221,225 ,
9794,76.00,-492.00,16760.00,0.11,-0.33,10.08,67.00,20.00,33.00,0.07,0.14,0.04,198,223,228 ,
10495,104.00,-608.00,16632.00,0.06,-0.36,9.95,65.00,18.00,29.00,-0.11,0.07,-0.08,199,219,229 ,
button pressed
696,88.00,-556.00,16920.00,0.05,-0.33,10.12,68.00,20.00,33.00,0.01,-0.05,0.10,200,222,224 ,
1395,164.00,-536.00,16848.00,0.12,-0.29,10.12,66.00,22.00,30.00,-0.11,0.01,-0.08,202,212,225 ,
2096,96.00,-608.00,16888.00,0.13,-0.36,10.12,67.00,19.00,28.00,0.13,-0.05,-0.14,199,210,224 ,
2795,72.00,-600.00,16940.00,0.11,-0.36,10.10,65.00,19.00,30.00,0.01,-0.05,-0.08,201,209,223 ,
3496,152.00,-536.00,16828.00,0.09,-0.31,10.12,67.00,16.00,34.00,0.01,-0.05,0.04,200,211,223 ,
4195,92.00,-588.00,16820.00,0.04,-0.37,10.03,67.00,18.00,33.00,-0.05,0.07,0.04,199,217,223 ,
4895,164.00,-520.00,16888.00,0.12,-0.33,10.04,65.00,21.00,31.00,0.07,0.20,-0.02,200,216,224 ,
5595,172.00,-612.00,16880.00,0.10,-0.34,10.13,70.00,20.00,31.00,0.25,0.01,0.10,201,221,225 ,
6295,60.00,-484.00,16896.00,0.05,-0.34,10.07,67.00,22.00,31.00,-0.11,0.01,0.10,199,225,225 ,
6995,172.00,-600.00,16788.00,0.13,-0.31,10.02,66.00,17.00,33.00,-0.11,-0.11,0.23,200,214,225 ,
7695,132.00,-568.00,16940.00,0.07,-0.33,10.12,64.00,21.00,31.00,-0.17,0.14,-0.02,199,215,224 ,
8394,152.00,-608.00,16916.00,0.13,-0.33,10.07,68.00,20.00,29.00,0.01,0.14,0.04,199,223,226 ,
9095,24.00,-576.00,16748.00,0.00,-0.37,10.02,64.00,19.00,29.00,-0.17,0.01,-0.20,200,224,225 ,
9794,228.00,-520.00,16844.00,0.17,-0.31,10.08,65.00,20.00,32.00,-0.05,-0.05,-0.02,201,219,222 ,
10495,152.00,-552.00,16892.00,0.11,-0.31,10.07,68.00,21.00,29.00,0.25,0.07,0.04,199,214,221 ,
button pressed
696,144.00,-576.00,16892.00,0.08,-0.37,10.06,66.00,20.00,32.00,0.01,-0.05,0.10,193,239,209 ,
1395,112.00,-532.00,16820.00,0.13,-0.34,10.12,63.00,17.00,30.00,0.01,0.01,0.04,198,218,210 ,
2096,144.00,-532.00,16916.00,0.06,-0.32,10.02,66.00,17.00,30.00,0.01,-0.05,-0.08,194,216,211 ,
2795,132.00,-588.00,16800.00,0.07,-0.37,10.14,67.00,16.00,29.00,0.13,-0.17,0.10,195,213,212 ,
3496,88.00,-552.00,16780.00,0.12,-0.31,10.12,67.00,20.00,28.00,0.13,0.14,-0.08,197,214,214 ,
4195,204.00,-592.00,16804.00,0.10,-0.38,10.06,65.00,21.00,32.00,0.13,0.07,-0.02,199,211,215 ,
4895,148.00,-588.00,16964.00,0.05,-0.35,10.05,65.00,19.00,29.00,0.01,0.01,-0.20,198,213,217 ,
5596,112.00,-564.00,16692.00,0.10,-0.33,10.05,65.00,17.00,33.00,0.01,0.01,0.04,199,212,219 ,
6295,180.00,-596.00,16780.00,0.06,-0.37,10.05,64.00,19.00,31.00,-0.17,0.07,-0.02,201,214,220 ,
6996,224.00,-576.00,16964.00,0.14,-0.36,10.08,66.00,17.00,32.00,0.01,-0.05,0.04,200,211,222 ,
7695,72.00,-540.00,16864.00,0.08,-0.35,10.08,68.00,19.00,32.00,0.01,-0.05,0.23,200,214,223 ,
8395,184.00,-688.00,16828.00,0.12,-0.34,10.10,64.00,21.00,30.00,0.01,0.07,-0.14,199,215,224 ,
9095,200.00,-568.00,16836.00,0.11,-0.32,10.05,64.00,18.00,33.00,-0.11,-0.05,-0.02,201,216,223 ,
9795,120.00,-668.00,16932.00,0.05,-0.38,10.12,65.00,20.00,30.00,-0.23,-0.05,-0.14,200,216,222 ,
10495,120.00,-608.00,16788.00,0.04,-0.38,9.99,65.00,14.00,29.00,-0.05,-0.17,-0.08,199,217,222 ,
button pressed
696,204.00,-588.00,16780.00,0.13,-0.37,10.05,67.00,16.00,30.00,0.07,0.01,0.04,301,422,554 ,
1395,96.00,-476.00,16824.00,0.07,-0.33,10.05,64.00,19.00,29.00,-0.05,-0.11,0.10,300,322,517 ,
2096,124.00,-552.00,17028.00,0.06,-0.34,10.17,64.00,19.00,31.00,-0.11,0.07,-0.20,293,275,492 ,
2795,120.00,-652.00,16836.00,0.05,-0.39,10.06,65.00,16.00,31.00,0.01,-0.11,-0.08,283,256,472 ,
3495,116.00,-588.00,16876.00,0.08,-0.34,10.04,66.00,21.00,32.00,0.13,0.14,0.10,280,379,500 ,
4195,156.00,-528.00,16848.00,0.09,-0.32,10.15,67.00,15.00,31.00,0.01,-0.17,-0.02,278,381,486 ,
4895,192.00,-696.00,16796.00,0.08,-0.38,10.05,67.00,22.00,32.00,0.01,0.07,0.23,276,363,483 ,
5595,200.00,-632.00,16788.00,0.01,-0.38,10.08,66.00,21.00,33.00,-0.05,-0.05,0.10,278,370,479 ,
6295,184.00,-640.00,16904.00,0.09,-0.35,10.10,64.00,20.00,35.00,-0.05,-0.05,0.17,265,371,475 ,
6994,112.00,-556.00,16772.00,0.07,-0.33,10.03,67.00,19.00,35.00,-0.11,-0.05,0.04,268,355,463 ,
7695,40.00,-584.00,16848.00,0.11,-0.30,10.11,65.00,19.00,27.00,-0.05,-0.05,-0.26,265,345,454 ,
8394,180.00,-580.00,16968.00,0.10,-0.37,10.05,69.00,20.00,31.00,0.19,0.01,-0.02,269,333,442 ,
9095,196.00,-616.00,16724.00,0.14,-0.37,10.02,67.00,19.00,31.00,-0.05,0.07,-0.08,262,327,433 ,
9795,220.00,-508.00,16888.00,0.11,-0.36,10.14,64.00,20.00,31.00,-0.05,0.07,-0.08,264,342,430 ,
10495,132.00,-524.00,16880.00,0.06,-0.30,10.10,67.00,23.00,29.00,0.07,0.20,-0.08,260,341,421 ,
button pressed
696,196.00,-632.00,16944.00,0.08,-0.38,10.07,65.00,19.00,34.00,-0.11,-0.11,-0.02,238,342,365 ,
1396,120.00,-556.00,16828.00,0.06,-0.28,10.13,65.00,21.00,33.00,-0.11,0.14,0.04,239,350,361 ,
2096,148.00,-560.00,16764.00,0.04,-0.33,10.06,66.00,20.00,31.00,0.07,-0.05,-0.02,234,338,354 ,
2796,124.00,-572.00,16760.00,0.13,-0.34,10.07,69.00,19.00,33.00,0.13,0.01,-0.02,230,332,346 ,
3496,204.00,-532.00,16840.00,0.11,-0.36,10.10,66.00,21.00,31.00,0.07,0.07,-0.02,231,329,341 ,
4195,132.00,-556.00,16904.00,0.09,-0.35,10.10,65.00,18.00,33.00,-0.05,0.01,0.10,230,325,338 ,
4896,64.00,-632.00,16744.00,0.05,-0.38,10.02,66.00,18.00,32.00,0.01,-0.05,-0.02,234,321,333 ,
5595,256.00,-648.00,16940.00,0.13,-0.39,10.17,64.00,15.00,31.00,-0.11,-0.11,-0.02,228,312,327 ,
6296,136.00,-604.00,16944.00,0.10,-0.31,10.08,65.00,20.00,30.00,0.07,0.07,-0.08,226,312,324 ,
6996,180.00,-460.00,16800.00,0.15,-0.29,10.06,64.00,20.00,31.00,-0.17,-0.05,0.10,226,303,319 ,
7695,100.00,-532.00,16900.00,0.11,-0.29,10.05,67.00,21.00,34.00,0.01,0.07,-0.08,230,300,315 ,
8396,176.00,-588.00,16800.00,0.14,-0.32,10.02,65.00,21.00,34.00,-0.17,0.01,-0.02,220,299,310 ,
9095,144.00,-548.00,16924.00,0.06,-0.32,10.16,67.00,19.00,30.00,-0.05,-0.05,-0.02,221,293,307 ,
9796,108.00,-568.00,16760.00,0.10,-0.33,10.06,66.00,15.00,34.00,0.13,-0.17,0.17,221,293,304 ,
10495,148.00,-512.00,16780.00,0.02,-0.34,10.10,67.00,20.00,31.00,0.01,-0.11,-0.08,220,288,301 ,
button pressed
696,160.00,-556.00,16752.00,0.09,-0.27,10.03,68.00,20.00,30.00,0.01,0.01,-0.02,204,263,254 ,
1396,192.00,-600.00,16784.00,0.08,-0.35,10.01,64.00,19.00,31.00,-0.17,-0.05,-0.08,202,240,247 ,
2096,128.00,-576.00,16868.00,0.04,-0.36,10.08,67.00,16.00,31.00,0.07,-0.05,0.10,203,250,254 ,
2796,184.00,-592.00,16824.00,0.13,-0.35,10.04,63.00,20.00,33.00,-0.17,-0.11,-0.02,204,251,253 ,
3496,112.00,-696.00,16820.00,0.02,-0.38,10.06,67.00,17.00,31.00,0.01,-0.05,0.10,206,252,253 ,
4196,312.00,-544.00,16748.00,0.13,-0.34,10.01,63.00,18.00,34.00,-0.23,-0.11,0.10,202,252,253 ,
4895,164.00,-632.00,16828.00,0.10,-0.39,10.05,65.00,17.00,32.00,-0.11,-0.23,-0.02,206,251,253 ,
5596,136.00,-592.00,16828.00,0.06,-0.41,10.11,68.00,20.00,30.00,-0.05,0.07,-0.08,208,249,256 ,
6295,172.00,-552.00,16892.00,0.12,-0.34,10.03,65.00,19.00,29.00,0.07,-0.05,-0.08,205,249,254 ,
6996,288.00,-636.00,16876.00,0.11,-0.31,10.07,66.00,15.00,32.00,0.01,-0.17,0.04,204,252,256 ,
7696,124.00,-540.00,16936.00,0.08,-0.30,10.15,66.00,20.00,31.00,0.07,0.14,0.04,203,248,255 ,
8395,200.00,-620.00,16892.00,0.11,-0.39,10.09,63.00,19.00,31.00,-0.11,-0.05,0.10,203,249,256 ,
9096,96.00,-600.00,16780.00,0.06,-0.33,10.00,67.00,19.00,31.00,-0.11,0.07,-0.20,204,244,254 ,
9795,172.00,-572.00,16732.00,0.08,-0.34,10.01,64.00,22.00,30.00,-0.11,0.14,0.04,200,247,253 ,
10496,124.00,-560.00,16924.00,0.11,-0.32,10.05,65.00,17.00,35.00,-0.11,-0.05,0.04,203,246,252 ,
button pressed
696,140.00,-612.00,16776.00,0.08,-0.38,10.06,64.00,22.00,29.00,-0.05,0.14,-0.02,201,231,234 ,
1396,164.00,-620.00,16928.00,0.06,-0.35,10.11,63.00,20.00,33.00,-0.11,0.20,-0.02,199,219,231 ,
2095,144.00,-512.00,16876.00,0.05,-0.30,10.07,69.00,20.00,30.00,0.07,0.07,-0.08,197,214,230 ,
2796,148.00,-504.00,16832.00,0.12,-0.29,10.14,66.00,18.00,30.00,0.13,0.01,-0.14,199,214,231 ,
3495,160.00,-588.00,16848.00,0.09,-0.34,10.11,66.00,20.00,32.00,-0.05,0.20,-0.02,200,214,232 ,
4196,72.00,-492.00,16864.00,0.06,-0.34,10.10,67.00,19.00,32.00,-0.05,-0.17,0.04,202,213,232 ,
4895,56.00,-532.00,16804.00,0.07,-0.33,9.96,65.00,18.00,31.00,-0.05,-0.11,0.04,202,211,232 ,
5595,120.00,-560.00,16836.00,0.10,-0.35,10.07,64.00,18.00,32.00,0.01,0.14,0.04,199,209,235 ,
6295,212.00,-604.00,16824.00,0.11,-0.34,10.11,65.00,19.00,29.00,0.13,-0.11,-0.02,202,211,233 ,
6995,344.00,-572.00,16888.00,0.11,-0.34,10.06,67.00,23.00,31.00,-0.05,0.20,-0.02,200,203,231 ,
7695,76.00,-476.00,16900.00,0.07,-0.33,10.14,64.00,21.00,31.00,-0.05,0.07,-0.02,203,210,234 ,
8395,164.00,-536.00,16824.00,0.13,-0.32,10.02,66.00,17.00,31.00,0.07,0.07,-0.02,205,215,236 ,
9095,84.00,-628.00,16780.00,0.09,-0.36,10.00,65.00,16.00,30.00,0.01,-0.11,-0.08,203,217,237 ,
9795,40.00,-516.00,16792.00,0.07,-0.28,10.08,65.00,21.00,30.00,0.01,0.07,0.04,203,215,238 ,
10495,40.00,-676.00,16832.00,0.06,-0.33,10.12,64.00,18.00,29.00,-0.05,-0.11,-0.14,203,216,239 ,
button pressed
696,104.00,-712.00,16808.00,0.06,-0.35,10.05,64.00,19.00,30.00,0.01,-0.05,0.04,194,273,218 ,
1396,176.00,-464.00,16768.00,0.06,-0.34,10.10,66.00,19.00,31.00,0.01,0.01,-0.14,194,224,204 ,
2096,132.00,-660.00,16796.00,0.09,-0.36,10.08,67.00,19.00,30.00,0.01,-0.11,-0.02,195,235,210 ,
2796,120.00,-628.00,16992.00,0.07,-0.38,10.16,63.00,18.00,33.00,-0.11,0.01,0.04,194,233,212 ,
3496,120.00,-576.00,16980.00,0.11,-0.38,10.10,62.00,17.00,33.00,-0.23,-0.11,0.04,194,229,213 ,
4195,132.00,-588.00,16816.00,0.06,-0.35,10.04,66.00,17.00,33.00,-0.05,0.07,-0.02,198,231,217 ,
4896,88.00,-600.00,16840.00,0.07,-0.35,10.08,68.00,17.00,32.00,-0.11,0.07,0.10,196,233,220 ,
5595,88.00,-560.00,16852.00,0.09,-0.36,10.10,63.00,18.00,30.00,-0.11,0.07,0.04,200,231,218 ,
6296,144.00,-568.00,16792.00,0.10,-0.36,9.99,64.00,20.00,33.00,-0.05,-0.05,0.04,198,231,220 ,
6995,100.00,-576.00,16948.00,0.06,-0.34,10.14,67.00,21.00,31.00,0.01,0.01,0.04,197,229,219 ,
7695,208.00,-636.00,16808.00,0.09,-0.41,10.09,65.00,18.00,31.00,0.07,-0.17,-0.02,200,230,220 ,
8395,172.00,-704.00,16824.00,0.10,-0.40,10.03,67.00,18.00,31.00,0.07,0.07,-0.14,197,225,223 ,
9095,116.00,-580.00,16752.00,0.09,-0.35,10.09,65.00,19.00,30.00,0.13,0.01,-0.20,200,227,223 ,
9795,188.00,-568.00,16916.00,0.11,-0.33,10.11,65.00,22.00,32.00,0.01,0.07,0.17,195,223,221 ,
10495,248.00,-600.00,16800.00,0.11,-0.38,9.99,65.00,18.00,31.00,-0.11,0.07,-0.02,198,222,220 ,
button pressed
697,160.00,-576.00,16768.00,0.06,-0.38,10.02,65.00,19.00,30.00,-0.05,-0.11,-0.20,202,230,226 ,
1397,40.00,-564.00,16960.00,0.12,-0.37,10.16,66.00,18.00,30.00,0.07,-0.11,0.04,202,235,229 ,
2096,44.00,-672.00,16868.00,0.04,-0.35,10.05,65.00,19.00,33.00,-0.11,0.14,-0.02,202,232,230 ,
2797,80.00,-660.00,16920.00,0.04,-0.33,10.11,67.00,19.00,32.00,-0.05,0.01,0.04,200,230,227 ,
3496,156.00,-540.00,16900.00,0.10,-0.34,10.02,65.00,19.00,33.00,-0.11,0.01,0.04,201,226,227 ,
4197,144.00,-596.00,16760.00,0.02,-0.32,10.10,66.00,16.00,31.00,-0.05,-0.17,-0.02,200,226,224 ,
4896,116.00,-568.00,16900.00,0.11,-0.32,10.15,66.00,17.00,33.00,-0.05,0.01,-0.08,197,222,222 ,
5596,176.00,-500.00,16908.00,0.09,-0.26,10.04,62.00,20.00,32.00,0.07,0.07,0.04,198,219,220 ,
6296,124.00,-544.00,16920.00,0.10,-0.35,10.13,64.00,20.00,33.00,-0.05,-0.05,-0.08,196,218,217 ,
6996,288.00,-592.00,16780.00,0.12,-0.40,10.00,66.00,20.00,31.00,-0.05,0.14,0.04,198,216,217 ,
7696,164.00,-492.00,16708.00,0.14,-0.33,10.02,66.00,18.00,33.00,-0.23,-0.11,0.17,199,216,216 ,
8396,152.00,-544.00,16828.00,0.07,-0.28,10.11,67.00,19.00,31.00,-0.05,0.01,-0.08,195,215,215 ,
9095,76.00,-616.00,16868.00,0.08,-0.33,10.17,64.00,16.00,30.00,-0.05,0.01,-0.08,197,214,214 ,
9796,176.00,-508.00,16900.00,0.07,-0.31,10.08,65.00,18.00,29.00,-0.17,-0.05,0.04,196,214,213 ,
10495,160.00,-508.00,16744.00,0.08,-0.38,10.01,66.00,19.00,32.00,0.01,0.26,0.17,194,214,214 ,
button pressed
696,176.00,-568.00,16864.00,0.05,-0.35,10.10,66.00,20.00,30.00,-0.17,0.01,-0.14,200,235,228 ,
1396,180.00,-556.00,16808.00,0.09,-0.30,10.09,68.00,16.00,30.00,0.01,-0.11,-0.20,202,220,225 ,
2096,104.00,-520.00,16812.00,0.04,-0.39,10.10,65.00,19.00,32.00,0.01,0.01,-0.02,200,197,217 ,
2796,108.00,-564.00,16836.00,0.13,-0.33,10.15,64.00,24.00,31.00,-0.11,0.14,-0.20,201,213,222 ,
3496,124.00,-624.00,16804.00,0.10,-0.34,10.04,66.00,23.00,31.00,-0.05,0.01,-0.08,197,212,221 ,
4196,140.00,-564.00,16840.00,0.08,-0.33,10.07,64.00,18.00,31.00,-0.11,-0.11,0.04,203,215,223 ,
4896,76.00,-548.00,16804.00,0.09,-0.33,10.08,67.00,20.00,31.00,0.19,0.14,0.10,200,214,227 ,
5596,136.00,-568.00,16976.00,0.08,-0.34,10.16,65.00,18.00,33.00,-0.11,-0.05,0.17,205,214,229 ,
6296,180.00,-572.00,16868.00,0.09,-0.37,10.12,67.00,20.00,32.00,-0.05,0.01,0.04,202,214,231 ,
6996,56.00,-604.00,16808.00,0.09,-0.38,10.11,65.00,17.00,28.00,0.01,-0.11,-0.14,201,211,228 ,
7695,128.00,-588.00,16812.00,0.10,-0.32,10.03,67.00,18.00,31.00,0.13,-0.05,0.10,204,218,229 ,
8396,308.00,-628.00,16900.00,0.10,-0.34,10.02,66.00,17.00,28.00,0.01,0.20,-0.14,201,206,225 ,
9095,140.00,-504.00,16844.00,0.07,-0.30,10.05,66.00,19.00,29.00,-0.11,0.07,-0.14,200,209,224 ,
9796,172.00,-524.00,16912.00,0.10,-0.31,10.12,66.00,16.00,33.00,-0.05,-0.11,0.10,201,212,228 ,
10495,200.00,-560.00,16844.00,0.09,-0.33,10.05,65.00,21.00,32.00,0.01,0.14,0.04,201,210,227 ,
button pressed
696,264.00,-576.00,16848.00,0.17,-0.37,10.06,65.00,17.00,30.00,0.07,0.07,-0.08,193,219,206 ,
1396,108.00,-568.00,16908.00,0.14,-0.33,10.13,68.00,17.00,28.00,0.13,-0.05,-0.14,195,214,206 ,
2096,232.00,-504.00,16812.00,0.11,-0.30,10.12,65.00,21.00,30.00,-0.05,0.07,0.10,194,211,208 ,
2795,72.00,-588.00,16824.00,0.04,-0.35,10.11,67.00,19.00,32.00,0.01,0.26,-0.02,195,211,211 ,
3496,164.00,-548.00,16864.00,0.07,-0.31,10.14,68.00,19.00,30.00,0.07,0.01,-0.02,197,213,214 ,
4195,132.00,-528.00,16952.00,0.10,-0.37,10.09,65.00,20.00,31.00,-0.11,0.14,-0.02,197,211,215 ,
4896,132.00,-640.00,16704.00,0.08,-0.37,9.99,64.00,18.00,31.00,-0.11,0.01,0.04,197,211,216 ,
5596,32.00,-504.00,16856.00,0.07,-0.33,10.02,64.00,18.00,33.00,-0.17,-0.23,0.10,196,211,216 ,
6295,80.00,-580.00,16852.00,0.09,-0.41,10.09,65.00,18.00,32.00,-0.11,-0.11,0.04,199,213,217 ,
6996,136.00,-544.00,16848.00,0.10,-0.33,10.07,64.00,19.00,30.00,-0.11,-0.05,-0.02,199,213,216 ,
7695,76.00,-612.00,16708.00,0.10,-0.34,10.05,68.00,20.00,33.00,0.01,0.07,0.17,196,208,216 ,
8396,124.00,-540.00,16756.00,0.09,-0.33,10.02,66.00,17.00,30.00,-0.17,-0.05,0.23,198,212,218 ,
9095,128.00,-608.00,16780.00,0.05,-0.38,10.09,63.00,18.00,31.00,-0.11,-0.11,-0.08,199,214,219 ,
9795,176.00,-520.00,17024.00,0.04,-0.31,10.18,68.00,21.00,32.00,0.13,0.01,-0.14,200,215,221 ,
10495,88.00,-552.00,17100.00,0.06,-0.31,10.19,65.00,19.00,30.00,0.01,-0.05,-0.20,201,216,222 ,
